Folder: Py_elchem/data/light_intensity (part 6)

File: Photocurrent-M1150.DTA
EXPLAIN
TAG	CHRONOA
TITLE	LABEL	Chronoamperometry Scan	Test &Identifier
DATE	LABEL	6/10/2025	Date
TIME	LABEL	15:48:16	Time
NOTES	NOTES	1	&Notes...

PSTAT	PSTAT	IFC5000-19505	Potentiostat
VPRESTEP	POTEN	0.00000E+000	F	Pre-step Voltage (V)
TPRESTEP	QUANT	1.00000E+000	Pre-step Delay &Time (s)
VSTEP1	POTEN	6.00000E-001	F	Step 1 Voltage (V)
TSTEP1	QUANT	3.20000E+002	Step 1 Time (s)
VSTEP2	POTEN	0.00000E+000	F	Step 2 Voltage (V)
TSTEP2	QUANT	0.00000E+000	Step 2 Time (s)
SAMPLETIME	QUANT	2.00000E-001	Sa&mple Period (s)
ILIMIT	QUANT	1.00000E+001	Limit &I (mA/cm^2)
IMODE	SELECTOR	0	I/E Range &Mode
IRANGE	QUANT	5.00000E+001	&Max Current (mA)
DECIMATE	TOGGLE	F	Decimate
AREA	QUANT	5.00000E-001	Electrode &Area (cm^2)
ELECTRODETYPE	SELECTOR	0	Electrode Type
STRIPPING	TOGGLE	F	Used for Stripping
EQDELAY	QUANT	1.00000E+000	Equil. &Time (s)
CONDIT	TWOPARAM	F	3.00000E+001	0.00000E+000	Conditionin&g	Time(s)	E(V)
DELAY	TWOPARAM	F	1.20000E+002	1.00000E-001	Init. De&lay	Time(s)	Stab.(mV/s)
IRCOMP	SELECTOR	0	IRCom&p
PFCOR	QUANT	1.00000E+001	PF Corr. (ohm)
SAMPLINGMODE	SELECTOR	2	Sampling &Mode
EOC	QUANT	0	Open Circuit (V)
PSTATMODEL	IQUANT	53	Pstat Model
PSTATSECTION	LABEL	IFC5000-19505	Pstat Section
PSTATSERIALNO	LABEL	19505	Pstat Serial Number
CTRLMODE	IQUANT	1	Control Mode
ELECTROMETER	IQUANT	0	RE=0 or CS=1
IESTAB	IQUANT	0	I/E Stability
CASPEED	IQUANT	4	Control Amp Speed
CONVENTION	IQUANT	1	Current Convention
ICHRANGE	IQUANT	2	Ich Range
ICHRANGEMODE	TOGGLE	T	Ich Auto Range
ICHOFFSETENABLE	TOGGLE	F	Ich Offset Enable
ICHOFFSET	QUANT	0	Ich Offset (V)
ICHFILTER	IQUANT	3	Ich Filter
VCHRANGE	IQUANT	2	Vch Range
VCHRANGEMODE	TOGGLE	F	Vch Auto Range
VCHOFFSETENABLE	TOGGLE	F	Vch Offset Enable
VCHOFFSET	QUANT	0	Vch Offset (V)
VCHFILTER	IQUANT	3	Vch Filter
IERANGELOWERLIMIT	IQUANT	7	I/E Range Lower Limit
IERANGEMODE	TOGGLE	T	I/E AutoRange
IERANGE	IQUANT	11	I/E Range
ACHSELECT	IQUANT	4	Ach Select
ACHRANGE	IQUANT	2	Ach Range
ACHOFFSETENABLE	TOGGLE	F	Ach Offset Enable
ACHOFFSET	QUANT	0	Ach Offset (V)
ACHFILTER	IQUANT	1	Ach Filter
SENSECABLEID	IQUANT	14	Sense Cable ID
PWRCABLEID	IQUANT	7	Power Cable ID
DCCALDATE	LABEL	8/27/2025	DC Calibration Date
ACCALDATE	LABEL	3/7/2024	AC Calibration Date
FRAMEWORKVERSION	LABEL	7.10.3	Framework Version
INSTRUMENTVERSION	LABEL	4.91	Instrument Version
COMMVERSION	LABEL	3.10	Communications Version
CPUPLDVERSION	LABEL	5.50	CPU PLD Version
CTRLPLDVERSION	LABEL	0.00	CTRL PLD Version
PSTATPLDVERSION	LABEL	0.00	PSTAT PLD Version
CURVE	TABLE	1605
	Pt	T	Vf	Im	Vu	Sig	Ach	IERange	Over	Temp
	#	s	V vs. Ref.	A	V	V	V	#	bits	deg C
	0	-0.8	2.11624E-004	4.00663E-005	0.00000E+000	-1.29551E-004	2.33197E-004	11	...........	1572.10
	16	2.4	6.00065E-001	2.10943E-007	0.00000E+000	5.99882E-001	2.42653E-004	7	...........	1571.07
	32	5.6	6.00054E-001	1.54663E-007	0.00000E+000	5.99882E-001	2.45088E-004	7	...........	1571.07
	48	8.8	6.00021E-001	1.30707E-007	0.00000E+000	5.99882E-001	2.43287E-004	7	...........	1571.07
	64	12	6.00034E-001	1.15148E-007	0.00000E+000	5.99882E-001	2.41235E-004	7	...........	1571.07
	80	15.2	6.00069E-001	1.09582E-007	0.00000E+000	5.99882E-001	2.56611E-004	7	...........	1571.07
	96	18.4	6.00031E-001	9.94004E-008	0.00000E+000	5.99882E-001	2.54093E-004	7	...........	1571.07
	112	21.6	6.00057E-001	9.24238E-008	0.00000E+000	5.99882E-001	2.42119E-004	7	...........	1571.07
	128	24.8	6.00040E-001	8.69179E-008	0.00000E+000	5.99882E-001	2.41836E-004	7	...........	1571.07
	144	28	6.00058E-001	8.22702E-008	0.00000E+000	5.99882E-001	2.45338E-004	7	...........	1571.07
	160	31.2	6.00038E-001	7.85738E-008	0.00000E+000	5.99882E-001	2.42670E-004	7	...........	1571.07
	176	34.4	6.00046E-001	3.54734E-007	0.00000E+000	5.99882E-001	2.32997E-004	7	...........	1571.07
	192	37.6	6.00047E-001	3.37985E-007	0.00000E+000	5.99882E-001	2.39951E-004	7	...........	1571.07
	208	40.8	6.00052E-001	3.27501E-007	0.00000E+000	5.99882E-001	2.43470E-004	7	...........	1571.07
	224	44	6.00052E-001	3.17614E-007	0.00000E+000	5.99882E-001	2.45088E-004	7	...........	1571.07
	240	47.2	6.00058E-001	3.08708E-007	0.00000E+000	5.99882E-001	2.46088E-004	7	...........	1571.07
	256	50.4	6.00056E-001	3.00988E-007	0.00000E+000	5.99882E-001	2.45388E-004	7	...........	1571.07
	272	53.6	6.00059E-001	8.04144E-008	0.00000E+000	5.99882E-001	2.45905E-004	7	...........	1571.07
	288	56.8	6.00033E-001	7.29091E-008	0.00000E+000	5.99882E-001	2.49690E-004	7	...........	1571.07
	304	60	6.00028E-001	7.23002E-008	0.00000E+000	5.99882E-001	2.23091E-004	7	...........	1571.07
	320	63.2	6.00029E-001	7.35101E-008	0.00000E+000	5.99882E-001	2.25259E-004	7	...........	1571.07
	336	66.4	6.00039E-001	7.52260E-008	0.00000E+000	5.99882E-001	2.42319E-004	7	...........	1571.07
	352	69.6	6.00056E-001	7.57302E-008	0.00000E+000	5.99882E-001	2.38517E-004	7	...........	1571.07
	368	72.8	6.00056E-001	2.96026E-007	0.00000E+000	5.99882E-001	2.29512E-004	7	...........	1571.07
	384	76	6.00031E-001	2.96631E-007	0.00000E+000	5.99882E-001	2.48089E-004	7	...........	1571.07
	400	79.2	6.00053E-001	2.93255E-007	0.00000E+000	5.99882E-001	2.46505E-004	7	...........	1571.15
	416	82.4	6.00024E-001	2.89094E-007	0.00000E+000	5.99882E-001	2.51992E-004	7	...........	1571.07
	432	85.6	6.00020E-001	2.84187E-007	0.00000E+000	5.99882E-001	2.30329E-004	7	...........	1571.07
	448	88.8	6.00052E-001	2.80418E-007	0.00000E+000	5.99882E-001	2.44437E-004	7	...........	1571.07
	464	92	6.00022E-001	9.59066E-008	0.00000E+000	5.99882E-001	2.36883E-004	7	...........	1571.07
	480	95.2	6.00032E-001	7.80393E-008	0.00000E+000	5.99882E-001	2.41719E-004	7	...........	1571.07
	496	98.4	6.00029E-001	7.61579E-008	0.00000E+000	5.99882E-001	2.19756E-004	7	...........	1571.17
	512	101.6	6.00052E-001	7.56773E-008	0.00000E+000	5.99882E-001	2.34431E-004	7	...........	1571.07
	528	104.8	6.00048E-001	7.58801E-008	0.00000E+000	5.99882E-001	2.31780E-004	7	...........	1571.07
	544	108	6.00054E-001	7.62200E-008	0.00000E+000	5.99882E-001	2.36683E-004	7	...........	1571.07
	560	111.2	6.00033E-001	7.58129E-008	0.00000E+000	5.99882E-001	2.39101E-004	7	...........	1571.07
	576	114.4	6.00020E-001	2.78530E-007	0.00000E+000	5.99882E-001	2.30062E-004	7	...........	1571.17
	592	117.6	6.00027E-001	2.76167E-007	0.00000E+000	5.99882E-001	2.42519E-004	7	...........	1571.07
	608	120.8	6.00050E-001	2.73877E-007	0.00000E+000	5.99882E-001	2.34882E-004	7	...........	1571.07
	624	124	6.00026E-001	2.70934E-007	0.00000E+000	5.99882E-001	2.39201E-004	7	...........	1571.17
	640	127.2	6.00034E-001	2.67445E-007	0.00000E+000	5.99882E-001	2.21940E-004	7	...........	1571.15
	656	130.4	6.00029E-001	2.65470E-007	0.00000E+000	5.99882E-001	2.44421E-004	7	...........	1571.17
	672	133.6	6.00046E-001	8.04961E-008	0.00000E+000	5.99882E-001	2.39584E-004	7	...........	1571.17
	688	136.8	6.00051E-001	7.52801E-008	0.00000E+000	5.99882E-001	2.19539E-004	7	...........	1571.17
	704	140	6.00022E-001	7.32175E-008	0.00000E+000	5.99882E-001	2.28728E-004	7	...........	1571.07
	720	143.2	6.00053E-001	7.30062E-008	0.00000E+000	5.99882E-001	2.33080E-004	7	...........	1571.17
	736	146.4	6.00013E-001	7.22625E-008	0.00000E+000	5.99882E-001	2.36082E-004	7	...........	1571.17
	752	149.6	6.00044E-001	7.17644E-008	0.00000E+000	5.99882E-001	2.21040E-004	7	...........	1571.17
	768	152.8	6.00049E-001	2.65684E-007	0.00000E+000	5.99882E-001	2.43103E-004	7	...........	1571.17
[...]
	1040	207.2	6.00024E-001	2.46806E-007	0.00000E+000	5.99882E-001	2.15170E-004	7	...........	1571.17
	1056	210.4	6.00029E-001	2.45610E-007	0.00000E+000	5.99882E-001	2.10834E-004	7	...........	1571.17
	1072	213.6	6.00020E-001	7.58021E-008	0.00000E+000	5.99882E-001	2.15470E-004	7	...........	1571.17
	1088	216.8	6.00030E-001	7.10111E-008	0.00000E+000	5.99882E-001	2.33664E-004	7	...........	1571.17
	1104	220	6.00045E-001	7.00971E-008	0.00000E+000	5.99882E-001	2.22991E-004	7	...........	1571.17
	1120	223.2	6.00020E-001	6.94932E-008	0.00000E+000	5.99882E-001	2.35549E-004	7	...........	1571.17
	1136	226.4	6.00009E-001	6.85383E-008	0.00000E+000	5.99882E-001	2.21757E-004	7	...........	1571.17
	1152	229.6	6.00014E-001	6.82194E-008	0.00000E+000	5.99882E-001	2.30962E-004	7	...........	1571.17
	1168	232.8	6.00036E-001	2.50772E-007	0.00000E+000	5.99882E-001	2.36132E-004	7	...........	1571.17
	1184	236	6.00045E-001	2.48438E-007	0.00000E+000	5.99882E-001	2.25676E-004	7	...........	1571.17
	1200	239.2	6.00029E-001	2.47947E-007	0.00000E+000	5.99882E-001	2.35599E-004	7	...........	1571.17
	1216	242.4	6.00039E-001	2.43677E-007	0.00000E+000	5.99882E-001	2.17671E-004	7	...........	1571.17
	1232	245.6	5.99997E-001	2.39488E-007	0.00000E+000	5.99882E-001	1.86769E-004	7	...........	1571.17
	1248	248.8	6.00034E-001	2.38744E-007	0.00000E+000	5.99882E-001	2.06981E-004	7	...........	1571.17
	1264	252	6.00029E-001	2.01078E-007	0.00000E+000	5.99882E-001	2.07715E-004	7	...........	1571.17
	1280	255.2	6.00026E-001	6.93888E-008	0.00000E+000	5.99882E-001	2.25643E-004	7	...........	1571.17
	1296	258.4	6.00006E-001	6.76468E-008	0.00000E+000	5.99882E-001	2.13602E-004	7	...........	1571.17
	1312	261.6	6.00040E-001	6.65072E-008	0.00000E+000	5.99882E-001	2.15820E-004	7	...........	1571.17
	1328	264.8	6.00029E-001	6.57004E-008	0.00000E+000	5.99882E-001	2.10600E-004	7	...........	1571.17
	1344	268	6.00017E-001	6.59991E-008	0.00000E+000	5.99882E-001	2.19322E-004	7	...........	1571.17
	1360	271.2	6.00032E-001	6.51207E-008	0.00000E+000	5.99882E-001	2.19973E-004	7	...........	1571.17
	1376	274.4	6.00028E-001	2.41195E-007	0.00000E+000	5.99882E-001	2.09950E-004	7	...........	1571.17
	1392	277.6	6.00040E-001	2.41801E-007	0.00000E+000	5.99882E-001	2.00644E-004	7	...........	1571.17
	1408	280.8	6.00025E-001	2.41343E-007	0.00000E+000	5.99882E-001	2.21173E-004	7	...........	1571.17
	1424	284	6.00014E-001	2.38447E-007	0.00000E+000	5.99882E-001	2.12134E-004	7	...........	1571.17
	1440	287.2	6.00020E-001	2.36031E-007	0.00000E+000	5.99882E-001	2.08132E-004	7	...........	1571.17
	1456	290.4	6.00037E-001	2.35168E-007	0.00000E+000	5.99882E-001	1.89187E-004	7	...........	1571.17
	1472	293.6	6.00031E-001	7.43886E-008	0.00000E+000	5.99882E-001	2.14302E-004	7	...........	1571.17
	1488	296.8	6.00024E-001	6.81946E-008	0.00000E+000	5.99882E-001	1.93957E-004	7	...........	1571.17
	1504	300	6.00031E-001	6.67317E-008	0.00000E+000	5.99882E-001	2.09149E-004	7	...........	1571.17
	1520	303.2	6.00015E-001	6.54648E-008	0.00000E+000	5.99882E-001	2.20706E-004	7	...........	1571.17
	1536	306.4	6.00012E-001	6.56467E-008	0.00000E+000	5.99882E-001	1.97776E-004	7	...........	1571.17
	1552	309.6	6.00026E-001	6.50448E-008	0.00000E+000	5.99882E-001	2.13836E-004	7	...........	1571.17
	1568	312.8	6.00006E-001	6.32760E-008	0.00000E+000	5.99882E-001	1.90638E-004	7	...........	1571.17
	1584	316	6.00002E-001	6.25884E-008	0.00000E+000	5.99882E-001	1.87336E-004	7	...........	1571.17
	1600	319.2	6.00023E-001	6.47932E-008	0.00000E+000	5.99882E-001	1.98143E-004	7	...........	1571.17
	1604	320	6.00012E-001	6.59914E-008	0.00000E+000	5.99882E-001	2.20139E-004	7	...........	1571.17