Folder: Py_elchem/data/light_intensity (part 5)

File: Photocurrent-M900.DTA
EXPLAIN
TAG	MULTI_STEP_CHRONOA
TITLE	LABEL	Chronoamperometry Scan	Test &Identifier
DATE	LABEL	3/10/2025	Date
TIME	LABEL	15:18:09	Time
PSTAT	PSTAT	IFC5000-19505	Potentiostat
NOTES	NOTES	1	&Notes...

AREA	QUANT	5.00000E-001	Sample &Area (cm^2)
ELECTRODETYPE	SELECTOR	0	Electrode Type
STRIPPING	TOGGLE	F	Used for Stripping
VSTEP0	POTEN	4.00000E-001	F	Step &1 (V)
TSTEP0	QUANT	2.80000E+002	Time &1 (s)
VSTEP1	POTEN	6.00000E-001	F	Step &2 (V)
TSTEP1	QUANT	2.80000E+002	Time &2 (s)
SAMPLETIME	QUANT	2.00000E-001	Sa&mple Period (s)
CONDIT	TWOPARAM	T	3.00000E+001	0.00000E+000	Conditionin&g	Time(s)	E(V)
DELAY	TWOPARAM	F	3.00000E+002	1.00000E-001	Init. De&lay	Time(s)	Stab.(mV/s)
EQDELAY	QUANT	0.00000E+000	Equil. &Time (s)
ILIMIT	QUANT	1.00000E+001	Limit &I (mA/cm^2)
IRANGE	QUANT	5.00000E+003	&Max Current (mA)
IRCOMP	SELECTOR	0	IRCom&p
PFCOR	QUANT	5.00000E+001	PF Corr. (ohm)
EOC	QUANT	0	Open Circuit (V)
PSTATMODEL	IQUANT	53	Pstat Model
PSTATSECTION	LABEL	IFC5000-19505	Pstat Section
PSTATSERIALNO	LABEL	19505	Pstat Serial Number
CTRLMODE	IQUANT	1	Control Mode
ELECTROMETER	IQUANT	0	RE=0 or CS=1
IESTAB	IQUANT	2	I/E Stability
CASPEED	IQUANT	4	Control Amp Speed
CONVENTION	IQUANT	1	Current Convention
ICHRANGE	IQUANT	2	Ich Range
ICHRANGEMODE	TOGGLE	F	Ich Auto Range
ICHOFFSETENABLE	TOGGLE	F	Ich Offset Enable
ICHOFFSET	QUANT	0	Ich Offset (V)
ICHFILTER	IQUANT	3	Ich Filter
VCHRANGE	IQUANT	2	Vch Range
VCHRANGEMODE	TOGGLE	F	Vch Auto Range
VCHOFFSETENABLE	TOGGLE	F	Vch Offset Enable
VCHOFFSET	QUANT	0	Vch Offset (V)
VCHFILTER	IQUANT	3	Vch Filter
IERANGELOWERLIMIT	IQUANT	7	I/E Range Lower Limit
IERANGEMODE	TOGGLE	T	I/E AutoRange
IERANGE	IQUANT	12	I/E Range
ACHSELECT	IQUANT	4	Ach Select
ACHRANGE	IQUANT	2	Ach Range
ACHOFFSETENABLE	TOGGLE	F	Ach Offset Enable
ACHOFFSET	QUANT	0	Ach Offset (V)
ACHFILTER	IQUANT	1	Ach Filter
SENSECABLEID	IQUANT	14	Sense Cable ID
PWRCABLEID	IQUANT	7	Power Cable ID
DCCALDATE	LABEL	8/27/2025	DC Calibration Date
ACCALDATE	LABEL	3/7/2024	AC Calibration Date
FRAMEWORKVERSION	LABEL	7.10.3	Framework Version
INSTRUMENTVERSION	LABEL	4.91	Instrument Version
COMMVERSION	LABEL	3.10	Communications Version
CPUPLDVERSION	LABEL	5.50	CPU PLD Version
CTRLPLDVERSION	LABEL	0.00	CTRL PLD Version
PSTATPLDVERSION	LABEL	0.00	PSTAT PLD Version
Curve	TABLE	2800
	Pt	T	Vf	Im	Vu	Sig	Ach	IERange	Over	Temp
	#	s	V vs. Ref.	A	V	V	V	#	bits	deg C
	0	0.2	3.99960E-001	2.21790E-004	0.00000E+000	3.99977E-001	4.85778E-005	12	...........	1571.46
	28	5.8	3.99924E-001	3.32385E-007	0.00000E+000	3.99977E-001	2.34002E-005	7	...........	1572.03
	56	11.4	3.99958E-001	2.66367E-007	0.00000E+000	3.99977E-001	4.29087E-005	7	...........	1572.03
	84	17	3.99865E-001	2.27711E-007	0.00000E+000	3.99977E-001	4.72439E-005	7	...........	1572.03
	112	22.6	3.99955E-001	1.06817E-007	0.00000E+000	3.99977E-001	4.89113E-005	7	...........	1572.12
	140	28.2	3.99955E-001	8.59980E-008	0.00000E+000	3.99977E-001	4.14914E-005	7	...........	1572.03
	168	33.8	3.99932E-001	7.24832E-008	0.00000E+000	3.99977E-001	4.85778E-005	7	...........	1572.12
	196	39.4	3.99919E-001	6.43999E-008	0.00000E+000	3.99977E-001	5.07454E-005	7	...........	1572.03
	224	45	3.99931E-001	1.57898E-007	0.00000E+000	3.99977E-001	4.75774E-005	7	...........	1572.12
	252	50.6	3.99931E-001	1.51750E-007	0.00000E+000	3.99977E-001	4.24085E-005	7	...........	1572.03
	280	56.2	3.99956E-001	1.47139E-007	0.00000E+000	3.99977E-001	3.09868E-005	7	...........	1572.12
	308	61.8	3.99927E-001	5.54656E-008	0.00000E+000	3.99977E-001	1.98153E-005	7	...........	1572.03
	336	67.4	3.99952E-001	4.62768E-008	0.00000E+000	3.99977E-001	1.44796E-005	7	...........	1572.03
	364	73	3.99948E-001	4.24868E-008	0.00000E+000	3.99977E-001	3.04032E-005	7	...........	1572.03
	392	78.6	3.99966E-001	4.04191E-008	0.00000E+000	3.99977E-001	5.83321E-005	7	...........	1572.03
	420	84.2	3.99932E-001	1.30227E-007	0.00000E+000	3.99977E-001	4.29920E-005	7	...........	1572.03
	448	89.8	3.99916E-001	1.28550E-007	0.00000E+000	3.99977E-001	3.19039E-005	7	...........	1572.12
	476	95.4	3.99932E-001	1.25345E-007	0.00000E+000	3.99977E-001	2.18995E-005	7	...........	1572.03
	504	101	3.99960E-001	1.23309E-007	0.00000E+000	3.99977E-001	4.79109E-005	7	...........	1572.03
	532	106.6	3.99924E-001	3.53790E-008	0.00000E+000	3.99977E-001	5.94159E-005	7	...........	1572.03
	560	112.2	3.99940E-001	3.42012E-008	0.00000E+000	3.99977E-001	4.52430E-005	7	...........	1572.12
	588	117.8	3.99960E-001	3.15320E-008	0.00000E+000	3.99977E-001	5.08288E-005	7	...........	1572.03
	616	123.4	3.99942E-001	1.16900E-007	0.00000E+000	3.99977E-001	3.94905E-005	7	...........	1572.12
	644	129	3.99955E-001	1.14830E-007	0.00000E+000	3.99977E-001	4.81610E-005	7	...........	1572.12
	672	134.6	3.99948E-001	1.15095E-007	0.00000E+000	3.99977E-001	2.68184E-005	7	...........	1572.03
	700	140.2	3.99953E-001	1.12340E-007	0.00000E+000	3.99977E-001	3.44884E-005	7	...........	1572.12
	728	145.8	3.99935E-001	3.26751E-008	0.00000E+000	3.99977E-001	5.84988E-005	7	...........	1572.03
	756	151.4	3.99959E-001	2.91931E-008	0.00000E+000	3.99977E-001	3.07367E-005	7	...........	1572.03
	784	157	3.99941E-001	2.80716E-008	0.00000E+000	3.99977E-001	6.40846E-005	7	...........	1572.03
	812	162.6	3.99933E-001	1.09703E-007	0.00000E+000	3.99977E-001	5.10789E-005	7	...........	1572.03
	840	168.2	3.99941E-001	1.08616E-007	0.00000E+000	3.99977E-001	3.60724E-005	7	...........	1572.03
	868	173.8	3.99920E-001	1.08107E-007	0.00000E+000	3.99977E-001	3.44884E-005	7	...........	1572.12
	896	179.4	3.99951E-001	1.07419E-007	0.00000E+000	3.99977E-001	4.88279E-005	7	...........	1572.03
	924	185	3.99946E-001	2.89609E-008	0.00000E+000	3.99977E-001	4.22417E-005	7	...........	1572.03
	952	190.6	3.99940E-001	2.74355E-008	0.00000E+000	3.99977E-001	4.39091E-005	7	...........	1572.03
	980	196.2	3.99956E-001	2.61047E-008	0.00000E+000	3.99977E-001	5.57476E-005	7	...........	1572.03
	1008	201.8	3.99938E-001	1.06128E-007	0.00000E+000	3.99977E-001	6.35844E-005	7	...........	1572.03
	1036	207.4	3.99931E-001	1.03646E-007	0.00000E+000	3.99977E-001	5.84988E-005	7	...........	1572.03
	1064	213	3.99930E-001	1.03677E-007	0.00000E+000	3.99977E-001	4.88279E-005	7	...........	1572.12
	1092	218.6	3.99920E-001	1.02700E-007	0.00000E+000	3.99977E-001	4.55765E-005	7	...........	1572.03
	1120	224.2	3.99951E-001	2.88837E-008	0.00000E+000	3.99977E-001	5.55809E-005	7	...........	1572.03
	1148	229.8	3.99937E-001	2.57529E-008	0.00000E+000	3.99977E-001	4.76608E-005	7	...........	1572.03
	1176	235.4	3.99959E-001	2.48622E-008	0.00000E+000	3.99977E-001	7.07541E-005	7	...........	1572.03
	1204	241	3.99954E-001	2.38659E-008	0.00000E+000	3.99977E-001	6.15835E-005	7	...........	1572.03
	1232	246.6	3.99940E-001	1.00695E-007	0.00000E+000	3.99977E-001	2.91527E-005	7	...........	1572.03
	1260	252.2	3.99942E-001	9.98402E-008	0.00000E+000	3.99977E-001	1.97319E-005	7	...........	1572.03
	1288	257.8	3.99969E-001	9.99132E-008	0.00000E+000	3.99977E-001	3.83234E-005	7	...........	1572.03
	1316	263.4	3.99933E-001	2.93141E-008	0.00000E+000	3.99977E-001	4.00741E-005	7	...........	1572.03
	1344	269	3.99918E-001	2.55248E-008	0.00000E+000	3.99977E-001	4.44093E-005	7	...........	1572.12
	1372	274.6	3.99912E-001	2.45417E-008	0.00000E+000	3.99977E-001	3.37380E-005	7	...........	1572.03
	1400	280.2	5.99904E-001	7.25130E-007	0.00000E+000	5.99991E-001	1.26455E-005	7	...........	1572.03
[...]
	1792	358.6	5.99888E-001	1.13675E-007	0.00000E+000	5.99991E-001	4.21584E-005	7	...........	1572.03
	1820	364.2	5.99902E-001	2.48862E-007	0.00000E+000	5.99991E-001	3.89069E-005	7	...........	1572.03
	1848	369.8	5.99897E-001	2.46162E-007	0.00000E+000	5.99991E-001	4.64102E-005	7	...........	1572.03
	1876	375.4	5.99892E-001	2.43600E-007	0.00000E+000	5.99991E-001	2.89026E-005	7	...........	1572.03
	1904	381	5.99897E-001	2.41374E-007	0.00000E+000	5.99991E-001	4.36590E-005	7	...........	1572.03
	1932	386.6	5.99884E-001	1.09026E-007	0.00000E+000	5.99991E-001	4.96616E-005	7	...........	1572.03
	1960	392.2	5.99901E-001	1.04344E-007	0.00000E+000	5.99991E-001	5.68314E-005	7	...........	1572.12
	1988	397.8	5.99887E-001	1.01307E-007	0.00000E+000	5.99991E-001	5.83321E-005	7	...........	1572.12
	2016	403.4	5.99887E-001	2.32633E-007	0.00000E+000	5.99991E-001	5.49973E-005	7	...........	1572.03
	2044	409	5.99905E-001	2.31126E-007	0.00000E+000	5.99991E-001	5.35800E-005	7	...........	1572.03
	2072	414.6	5.99838E-001	2.29352E-007	0.00000E+000	5.99991E-001	4.48262E-005	7	...........	1572.03
	2100	420.2	5.99886E-001	2.27558E-007	0.00000E+000	5.99991E-001	3.85735E-005	7	...........	1572.03
	2128	425.8	5.99887E-001	1.01808E-007	0.00000E+000	5.99991E-001	4.70772E-005	7	...........	1572.12
	2156	431.4	5.99894E-001	9.67907E-008	0.00000E+000	5.99991E-001	2.73186E-005	7	...........	1572.03
	2184	437	5.99872E-001	9.57214E-008	0.00000E+000	5.99991E-001	7.00038E-005	7	...........	1572.03
	2212	442.6	5.99907E-001	2.25131E-007	0.00000E+000	5.99991E-001	3.34879E-005	7	...........	1572.03
	2240	448.2	5.99905E-001	2.23062E-007	0.00000E+000	5.99991E-001	4.85778E-005	7	...........	1572.03
	2268	453.8	5.99857E-001	2.21316E-007	0.00000E+000	5.99991E-001	4.92448E-005	7	...........	1572.03
	2296	459.4	5.99907E-001	2.19311E-007	0.00000E+000	5.99991E-001	3.89069E-005	7	...........	1572.12
	2324	465	5.99910E-001	9.70445E-008	0.00000E+000	5.99991E-001	4.14080E-005	7	...........	1572.03
	2352	470.6	5.99889E-001	9.18466E-008	0.00000E+000	5.99991E-001	5.09955E-005	7	...........	1572.03
	2380	476.2	5.99914E-001	8.92324E-008	0.00000E+000	5.99991E-001	4.21584E-005	7	...........	1572.12
	2408	481.8	5.99907E-001	8.66953E-008	0.00000E+000	5.99991E-001	4.99951E-005	7	...........	1572.12
	2436	487.4	5.99902E-001	2.12240E-007	0.00000E+000	5.99991E-001	5.58310E-005	7	...........	1572.12
	2464	493	5.99904E-001	2.12577E-007	0.00000E+000	5.99991E-001	2.23164E-005	7	...........	1572.12
	2492	498.6	5.99899E-001	2.11019E-007	0.00000E+000	5.99991E-001	5.14124E-005	7	...........	1572.03
	2520	504.2	5.99904E-001	9.46813E-008	0.00000E+000	5.99991E-001	5.09122E-005	7	...........	1572.03
	2548	509.8	5.99882E-001	8.82882E-008	0.00000E+000	5.99991E-001	6.01662E-005	7	...........	1572.03
	2576	515.4	5.99874E-001	8.50427E-008	0.00000E+000	5.99991E-001	4.70772E-005	7	...........	1572.03
	2604	521	5.99906E-001	8.38224E-008	0.00000E+000	5.99991E-001	2.62348E-005	7	...........	1572.12
	2632	526.6	5.99882E-001	2.06286E-007	0.00000E+000	5.99991E-001	2.68184E-005	7	...........	1572.03
	2660	532.2	5.99872E-001	2.06911E-007	0.00000E+000	5.99991E-001	3.94072E-005	7	...........	1572.12
	2688	537.8	5.99882E-001	2.05142E-007	0.00000E+000	5.99991E-001	6.10833E-005	7	...........	1572.12
	2716	543.4	5.99886E-001	9.43886E-008	0.00000E+000	5.99991E-001	3.85735E-005	7	...........	1572.12
	2744	549	5.99868E-001	8.54028E-008	0.00000E+000	5.99991E-001	1.77311E-005	7	...........	1572.12
	2772	554.6	5.99898E-001	8.15134E-008	0.00000E+000	5.99991E-001	3.10702E-005	7	...........	1572.12
	2799	560	5.99881E-001	8.11964E-008	0.00000E+000	5.99991E-001	4.06577E-005	7	...........	1572.03

File: Photocurrent-M1000.DTA
EXPLAIN
TAG	MULTI_STEP_CHRONOA
TITLE	LABEL	Chronoamperometry Scan	Test &Identifier
DATE	LABEL	3/10/2025	Date
TIME	LABEL	15:31:28	Time
PSTAT	PSTAT	IFC5000-19505	Potentiostat
NOTES	NOTES	1	&Notes...

AREA	QUANT	5.00000E-001	Sample &Area (cm^2)
ELECTRODETYPE	SELECTOR	0	Electrode Type
STRIPPING	TOGGLE	F	Used for Stripping
VSTEP0	POTEN	4.00000E-001	F	Step &1 (V)
TSTEP0	QUANT	2.80000E+002	Time &1 (s)
VSTEP1	POTEN	6.00000E-001	F	Step &2 (V)
TSTEP1	QUANT	2.80000E+002	Time &2 (s)
SAMPLETIME	QUANT	2.00000E-001	Sa&mple Period (s)
CONDIT	TWOPARAM	T	3.00000E+001	0.00000E+000	Conditionin&g	Time(s)	E(V)
DELAY	TWOPARAM	F	3.00000E+002	1.00000E-001	Init. De&lay	Time(s)	Stab.(mV/s)
EQDELAY	QUANT	0.00000E+000	Equil. &Time (s)
ILIMIT	QUANT	1.00000E+001	Limit &I (mA/cm^2)
IRANGE	QUANT	5.00000E+003	&Max Current (mA)
IRCOMP	SELECTOR	0	IRCom&p
PFCOR	QUANT	5.00000E+001	PF Corr. (ohm)
EOC	QUANT	0	Open Circuit (V)
PSTATMODEL	IQUANT	53	Pstat Model
PSTATSECTION	LABEL	IFC5000-19505	Pstat Section
PSTATSERIALNO	LABEL	19505	Pstat Serial Number
CTRLMODE	IQUANT	1	Control Mode
ELECTROMETER	IQUANT	0	RE=0 or CS=1
IESTAB	IQUANT	2	I/E Stability
CASPEED	IQUANT	4	Control Amp Speed
CONVENTION	IQUANT	1	Current Convention
ICHRANGE	IQUANT	2	Ich Range
ICHRANGEMODE	TOGGLE	F	Ich Auto Range
ICHOFFSETENABLE	TOGGLE	F	Ich Offset Enable
ICHOFFSET	QUANT	0	Ich Offset (V)
ICHFILTER	IQUANT	3	Ich Filter
VCHRANGE	IQUANT	2	Vch Range
VCHRANGEMODE	TOGGLE	F	Vch Auto Range
VCHOFFSETENABLE	TOGGLE	F	Vch Offset Enable
VCHOFFSET	QUANT	0	Vch Offset (V)
VCHFILTER	IQUANT	3	Vch Filter
IERANGELOWERLIMIT	IQUANT	7	I/E Range Lower Limit
IERANGEMODE	TOGGLE	T	I/E AutoRange
IERANGE	IQUANT	12	I/E Range
ACHSELECT	IQUANT	4	Ach Select
ACHRANGE	IQUANT	2	Ach Range
ACHOFFSETENABLE	TOGGLE	F	Ach Offset Enable
ACHOFFSET	QUANT	0	Ach Offset (V)
ACHFILTER	IQUANT	1	Ach Filter
SENSECABLEID	IQUANT	14	Sense Cable ID
PWRCABLEID	IQUANT	7	Power Cable ID
DCCALDATE	LABEL	8/27/2025	DC Calibration Date
ACCALDATE	LABEL	3/7/2024	AC Calibration Date
FRAMEWORKVERSION	LABEL	7.10.3	Framework Version
INSTRUMENTVERSION	LABEL	4.91	Instrument Version
COMMVERSION	LABEL	3.10	Communications Version
CPUPLDVERSION	LABEL	5.50	CPU PLD Version
CTRLPLDVERSION	LABEL	0.00	CTRL PLD Version
PSTATPLDVERSION	LABEL	0.00	PSTAT PLD Version
Curve	TABLE	2800
	Pt	T	Vf	Im	Vu	Sig	Ach	IERange	Over	Temp
	#	s	V vs. Ref.	A	V	V	V	#	bits	deg C
	0	0.2	3.99939E-001	1.92235E-004	0.00000E+000	3.99977E-001	5.26629E-005	12	...........	1572.51
	28	5.8	3.99912E-001	2.52865E-007	0.00000E+000	3.99977E-001	1.85648E-005	7	...........	1572.03
	56	11.4	3.99944E-001	2.05472E-007	0.00000E+000	3.99977E-001	5.13290E-005	7	...........	1572.12
	84	17	3.99945E-001	1.78006E-007	0.00000E+000	3.99977E-001	2.34002E-005	7	...........	1572.12
	112	22.6	3.99954E-001	1.01546E-007	0.00000E+000	3.99977E-001	5.87489E-005	7	...........	1572.12
	140	28.2	3.99944E-001	8.45490E-008	0.00000E+000	3.99977E-001	2.95695E-005	7	...........	1572.03
	168	33.8	3.99960E-001	7.44292E-008	0.00000E+000	3.99977E-001	5.25796E-005	7	...........	1572.12
	196	39.4	3.99965E-001	6.50395E-008	0.00000E+000	3.99977E-001	4.49929E-005	7	...........	1572.03
	224	45	3.99959E-001	1.19649E-007	0.00000E+000	3.99977E-001	4.09912E-005	7	...........	1572.12
	252	50.6	3.99939E-001	1.14075E-007	0.00000E+000	3.99977E-001	3.85735E-005	7	...........	1572.12
	280	56.2	3.99952E-001	1.09042E-007	0.00000E+000	3.99977E-001	2.83190E-005	7	...........	1572.12
	308	61.8	3.99941E-001	5.18286E-008	0.00000E+000	3.99977E-001	4.21584E-005	7	...........	1572.12
	336	67.4	3.99922E-001	4.30973E-008	0.00000E+000	3.99977E-001	5.57476E-005	7	...........	1572.12
	364	73	3.99955E-001	3.85599E-008	0.00000E+000	3.99977E-001	3.47385E-005	7	...........	1572.12
	392	78.6	3.99933E-001	3.70463E-008	0.00000E+000	3.99977E-001	3.98240E-005	7	...........	1572.12
	420	84.2	3.99940E-001	9.42975E-008	0.00000E+000	3.99977E-001	3.44884E-005	7	...........	1572.12
	448	89.8	3.99935E-001	9.16200E-008	0.00000E+000	3.99977E-001	5.08288E-005	7	...........	1572.03
	476	95.4	3.99943E-001	9.02127E-008	0.00000E+000	3.99977E-001	4.44927E-005	7	...........	1572.12
	504	101	3.99944E-001	8.86372E-008	0.00000E+000	3.99977E-001	2.04823E-005	7	...........	1572.12
	532	106.6	3.99941E-001	2.96791E-008	0.00000E+000	3.99977E-001	1.41462E-005	7	...........	1572.03
	560	112.2	3.99956E-001	2.72116E-008	0.00000E+000	3.99977E-001	5.03286E-005	7	...........	1572.12
	588	117.8	3.99946E-001	2.60352E-008	0.00000E+000	3.99977E-001	3.99907E-005	7	...........	1572.12
	616	123.4	3.99941E-001	8.51449E-008	0.00000E+000	3.99977E-001	2.86525E-005	7	...........	1572.12
	644	129	3.99938E-001	8.47061E-008	0.00000E+000	3.99977E-001	3.59056E-005	7	...........	1572.12
	672	134.6	3.99917E-001	8.36646E-008	0.00000E+000	3.99977E-001	3.59890E-005	7	...........	1572.03
	700	140.2	3.99897E-001	8.23943E-008	0.00000E+000	3.99977E-001	1.82313E-005	7	...........	1572.03
	728	145.8	3.99972E-001	2.50847E-008	0.00000E+000	3.99977E-001	3.53221E-005	7	...........	1572.12
	756	151.4	3.99933E-001	2.49978E-008	0.00000E+000	3.99977E-001	4.06577E-005	7	...........	1572.12
	784	157	3.99959E-001	2.14575E-008	0.00000E+000	3.99977E-001	4.70772E-005	7	...........	1572.12
	812	162.6	3.99959E-001	8.06214E-008	0.00000E+000	3.99977E-001	1.48965E-005	7	...........	1572.12
	840	168.2	3.99936E-001	7.94331E-008	0.00000E+000	3.99977E-001	3.85735E-005	7	...........	1572.12
	868	173.8	3.99940E-001	7.89284E-008	0.00000E+000	3.99977E-001	3.18205E-005	7	...........	1572.12
	896	179.4	3.99926E-001	7.91001E-008	0.00000E+000	3.99977E-001	2.03989E-005	7	...........	1572.03
	924	185	3.99936E-001	2.21750E-008	0.00000E+000	3.99977E-001	3.23207E-005	7	...........	1572.12
	952	190.6	3.99897E-001	1.97207E-008	0.00000E+000	3.99977E-001	3.76564E-005	7	...........	1572.12
	980	196.2	3.99947E-001	1.91095E-008	0.00000E+000	3.99977E-001	5.04120E-005	7	...........	1572.03
	1008	201.8	3.99925E-001	7.91703E-008	0.00000E+000	3.99977E-001	3.86568E-005	7	...........	1572.12
	1036	207.4	3.99947E-001	7.80885E-008	0.00000E+000	3.99977E-001	2.46507E-005	7	...........	1572.12
	1064	213	3.99930E-001	7.77506E-008	0.00000E+000	3.99977E-001	3.27376E-005	7	...........	1572.12
	1092	218.6	3.99956E-001	7.60534E-008	0.00000E+000	3.99977E-001	3.35713E-005	7	...........	1572.12
	1120	224.2	3.99949E-001	2.08533E-008	0.00000E+000	3.99977E-001	1.77311E-005	7	...........	1572.12
	1148	229.8	3.99936E-001	1.89844E-008	0.00000E+000	3.99977E-001	5.16625E-005	7	...........	1572.12
	1176	235.4	3.99964E-001	1.78393E-008	0.00000E+000	3.99977E-001	3.10702E-005	7	...........	1572.12
	1204	241	3.99940E-001	1.70167E-008	0.00000E+000	3.99977E-001	3.86568E-005	7	...........	1572.12
	1232	246.6	3.99947E-001	7.48694E-008	0.00000E+000	3.99977E-001	3.11536E-005	7	...........	1572.12
	1260	252.2	3.99956E-001	7.52830E-008	0.00000E+000	3.99977E-001	1.06446E-005	7	...........	1572.12
	1288	257.8	3.99930E-001	7.45113E-008	0.00000E+000	3.99977E-001	1.98153E-005	7	...........	1572.12
	1316	263.4	3.99949E-001	2.11516E-008	0.00000E+000	3.99977E-001	6.64290E-006	7	...........	1572.03
	1344	269	3.99941E-001	1.63945E-008	0.00000E+000	3.99977E-001	2.98196E-005	7	...........	1572.12
	1372	274.6	3.99949E-001	1.66635E-008	0.00000E+000	3.99977E-001	4.04076E-005	7	...........	1572.12
	1400	280.2	5.99892E-001	7.69565E-007	0.00000E+000	5.99991E-001	5.05787E-005	7	...........	1572.12
[...]
	1792	358.6	5.99909E-001	1.05138E-007	0.00000E+000	5.99991E-001	4.05743E-005	7	...........	1572.03
	1820	364.2	5.99889E-001	2.16650E-007	0.00000E+000	5.99991E-001	1.96486E-005	7	...........	1572.12
	1848	369.8	5.99878E-001	2.15472E-007	0.00000E+000	5.99991E-001	4.99117E-005	7	...........	1572.03
	1876	375.4	5.99913E-001	2.12822E-007	0.00000E+000	5.99991E-001	3.72395E-005	7	...........	1572.12
	1904	381	5.99907E-001	2.09726E-007	0.00000E+000	5.99991E-001	3.77398E-005	7	...........	1572.03
	1932	386.6	5.99846E-001	1.00661E-007	0.00000E+000	5.99991E-001	3.10702E-005	7	...........	1572.12
	1960	392.2	5.99908E-001	9.57221E-008	0.00000E+000	5.99991E-001	2.87359E-005	7	...........	1572.12
	1988	397.8	5.99878E-001	9.29187E-008	0.00000E+000	5.99991E-001	2.45674E-005	7	...........	1572.12
	2016	403.4	5.99899E-001	2.04270E-007	0.00000E+000	5.99991E-001	3.99907E-005	7	...........	1572.12
	2044	409	5.99887E-001	2.02201E-007	0.00000E+000	5.99991E-001	3.85735E-005	7	...........	1572.12
	2072	414.6	5.99824E-001	2.00655E-007	0.00000E+000	5.99991E-001	2.78188E-005	7	...........	1572.12
	2100	420.2	5.99898E-001	2.00376E-007	0.00000E+000	5.99991E-001	3.80732E-005	7	...........	1572.12
	2128	425.8	5.99898E-001	9.20441E-008	0.00000E+000	5.99991E-001	2.18162E-005	7	...........	1572.12
	2156	431.4	5.99906E-001	8.79419E-008	0.00000E+000	5.99991E-001	4.74106E-005	7	...........	1572.12
	2184	437	5.99911E-001	8.36583E-008	0.00000E+000	5.99991E-001	2.92361E-005	7	...........	1572.12
	2212	442.6	5.99906E-001	1.97113E-007	0.00000E+000	5.99991E-001	5.21627E-005	7	...........	1572.12
	2240	448.2	5.99883E-001	1.93165E-007	0.00000E+000	5.99991E-001	3.70728E-005	7	...........	1572.12
	2268	453.8	5.99882E-001	1.93020E-007	0.00000E+000	5.99991E-001	2.61514E-005	7	...........	1572.03
	2296	459.4	5.99915E-001	1.91234E-007	0.00000E+000	5.99991E-001	3.20706E-005	7	...........	1572.12
	2324	465	5.99901E-001	8.67315E-008	0.00000E+000	5.99991E-001	4.75774E-005	7	...........	1572.03
	2352	470.6	5.99916E-001	8.16914E-008	0.00000E+000	5.99991E-001	1.94818E-005	7	...........	1572.12
	2380	476.2	5.99877E-001	7.94923E-008	0.00000E+000	5.99991E-001	3.90737E-005	7	...........	1572.12
	2408	481.8	5.99880E-001	7.84000E-008	0.00000E+000	5.99991E-001	2.60680E-005	7	...........	1572.12
	2436	487.4	5.99885E-001	1.88568E-007	0.00000E+000	5.99991E-001	3.73229E-005	7	...........	1572.12
	2464	493	5.99884E-001	1.88004E-007	0.00000E+000	5.99991E-001	4.73273E-005	7	...........	1572.12
	2492	498.6	5.99893E-001	1.86967E-007	0.00000E+000	5.99991E-001	3.08201E-005	7	...........	1572.03
	2520	504.2	5.99910E-001	8.67037E-008	0.00000E+000	5.99991E-001	5.22461E-005	7	...........	1572.12
	2548	509.8	5.99875E-001	7.94735E-008	0.00000E+000	5.99991E-001	4.79109E-005	7	...........	1572.12
	2576	515.4	5.99873E-001	7.75107E-008	0.00000E+000	5.99991E-001	3.24041E-005	7	...........	1572.12
	2604	521	5.99875E-001	7.51857E-008	0.00000E+000	5.99991E-001	3.95739E-005	7	...........	1572.12
	2632	526.6	5.99897E-001	1.84636E-007	0.00000E+000	5.99991E-001	3.58223E-005	7	...........	1572.12
	2660	532.2	5.99875E-001	1.83265E-007	0.00000E+000	5.99991E-001	2.39004E-005	7	...........	1572.12
	2688	537.8	5.99889E-001	1.84414E-007	0.00000E+000	5.99991E-001	3.60724E-005	7	...........	1572.12
	2716	543.4	5.99867E-001	8.58234E-008	0.00000E+000	5.99991E-001	4.95783E-005	7	...........	1572.12
	2744	549	5.99909E-001	7.85661E-008	0.00000E+000	5.99991E-001	5.55909E-006	7	...........	1572.12
	2772	554.6	5.99913E-001	7.55048E-008	0.00000E+000	5.99991E-001	4.54931E-005	7	...........	1572.03
	2799	560	5.99897E-001	7.44348E-008	0.00000E+000	5.99991E-001	4.98284E-005	7	...........	1572.03