Folder: Py_elchem/data/light_intensity (part 4)

File: Photocurrent-M700.DTA
EXPLAIN
TAG	MULTI_STEP_CHRONOA
TITLE	LABEL	Chronoamperometry Scan	Test &Identifier
DATE	LABEL	18/9/2025	Date
TIME	LABEL	15:46:38	Time
PSTAT	PSTAT	IFC5000-19505	Potentiostat
NOTES	NOTES	1	&Notes...

AREA	QUANT	5.00000E-001	Sample &Area (cm^2)
ELECTRODETYPE	SELECTOR	0	Electrode Type
STRIPPING	TOGGLE	F	Used for Stripping
VSTEP0	POTEN	4.00000E-001	F	Step &1 (V)
TSTEP0	QUANT	2.80000E+002	Time &1 (s)
VSTEP1	POTEN	6.00000E-001	F	Step &2 (V)
TSTEP1	QUANT	2.80000E+002	Time &2 (s)
SAMPLETIME	QUANT	2.00000E-001	Sa&mple Period (s)
CONDIT	TWOPARAM	T	3.00000E+001	0.00000E+000	Conditionin&g	Time(s)	E(V)
DELAY	TWOPARAM	F	3.00000E+002	1.00000E-001	Init. De&lay	Time(s)	Stab.(mV/s)
EQDELAY	QUANT	0.00000E+000	Equil. &Time (s)
ILIMIT	QUANT	1.00000E+001	Limit &I (mA/cm^2)
IRANGE	QUANT	5.00000E+003	&Max Current (mA)
IRCOMP	SELECTOR	0	IRCom&p
PFCOR	QUANT	5.00000E+001	PF Corr. (ohm)
EOC	QUANT	0	Open Circuit (V)
PSTATMODEL	IQUANT	53	Pstat Model
PSTATSECTION	LABEL	IFC5000-19505	Pstat Section
PSTATSERIALNO	LABEL	19505	Pstat Serial Number
CTRLMODE	IQUANT	1	Control Mode
ELECTROMETER	IQUANT	0	RE=0 or CS=1
IESTAB	IQUANT	2	I/E Stability
CASPEED	IQUANT	4	Control Amp Speed
CONVENTION	IQUANT	1	Current Convention
ICHRANGE	IQUANT	2	Ich Range
ICHRANGEMODE	TOGGLE	F	Ich Auto Range
ICHOFFSETENABLE	TOGGLE	F	Ich Offset Enable
ICHOFFSET	QUANT	0	Ich Offset (V)
ICHFILTER	IQUANT	3	Ich Filter
VCHRANGE	IQUANT	2	Vch Range
VCHRANGEMODE	TOGGLE	F	Vch Auto Range
VCHOFFSETENABLE	TOGGLE	F	Vch Offset Enable
VCHOFFSET	QUANT	0	Vch Offset (V)
VCHFILTER	IQUANT	3	Vch Filter
IERANGELOWERLIMIT	IQUANT	7	I/E Range Lower Limit
IERANGEMODE	TOGGLE	T	I/E AutoRange
IERANGE	IQUANT	12	I/E Range
ACHSELECT	IQUANT	4	Ach Select
ACHRANGE	IQUANT	2	Ach Range
ACHOFFSETENABLE	TOGGLE	F	Ach Offset Enable
ACHOFFSET	QUANT	0	Ach Offset (V)
ACHFILTER	IQUANT	1	Ach Filter
SENSECABLEID	IQUANT	14	Sense Cable ID
PWRCABLEID	IQUANT	7	Power Cable ID
DCCALDATE	LABEL	8/27/2025	DC Calibration Date
ACCALDATE	LABEL	3/7/2024	AC Calibration Date
FRAMEWORKVERSION	LABEL	7.10.3	Framework Version
INSTRUMENTVERSION	LABEL	4.91	Instrument Version
COMMVERSION	LABEL	3.10	Communications Version
CPUPLDVERSION	LABEL	5.50	CPU PLD Version
CTRLPLDVERSION	LABEL	0.00	CTRL PLD Version
PSTATPLDVERSION	LABEL	0.00	PSTAT PLD Version
Curve	TABLE	2800
	Pt	T	Vf	Im	Vu	Sig	Ach	IERange	Over	Temp
	#	s	V vs. Ref.	A	V	V	V	#	bits	deg C
	0	0.2	4.00092E-001	3.13996E-004	0.00000E+000	3.99977E-001	2.07730E-004	12	...........	1572.12
	28	5.8	4.00084E-001	6.82921E-007	0.00000E+000	3.99977E-001	1.90806E-004	7	...........	1571.46
	56	11.4	4.00082E-001	4.88639E-007	0.00000E+000	3.99977E-001	2.15400E-004	7	...........	1571.46
	84	17	4.00073E-001	3.99143E-007	0.00000E+000	3.99977E-001	1.91723E-004	7	...........	1571.36
	112	22.6	4.00092E-001	2.30705E-007	0.00000E+000	3.99977E-001	2.01394E-004	7	...........	1571.36
	140	28.2	4.00071E-001	1.94717E-007	0.00000E+000	3.99977E-001	1.99977E-004	7	...........	1571.36
	168	33.8	4.00089E-001	1.71428E-007	0.00000E+000	3.99977E-001	2.03645E-004	7	...........	1571.41
	196	39.4	4.00061E-001	1.52366E-007	0.00000E+000	3.99977E-001	1.71298E-004	7	...........	1571.46
	224	45	4.00095E-001	2.54544E-007	0.00000E+000	3.99977E-001	1.90973E-004	7	...........	1571.36
	252	50.6	4.00040E-001	2.40511E-007	0.00000E+000	3.99977E-001	1.78885E-004	7	...........	1571.46
	280	56.2	4.00094E-001	2.27346E-007	0.00000E+000	3.99977E-001	2.05229E-004	7	...........	1571.46
	308	61.8	4.00066E-001	1.22378E-007	0.00000E+000	3.99977E-001	1.96392E-004	7	...........	1571.46
	336	67.4	4.00086E-001	1.08517E-007	0.00000E+000	3.99977E-001	1.94641E-004	7	...........	1571.46
	364	73	4.00076E-001	1.00972E-007	0.00000E+000	3.99977E-001	1.87805E-004	7	...........	1571.46
	392	78.6	4.00068E-001	9.34986E-008	0.00000E+000	3.99977E-001	1.90890E-004	7	...........	1571.46
	420	84.2	4.00036E-001	1.90657E-007	0.00000E+000	3.99977E-001	1.89889E-004	7	...........	1571.46
	448	89.8	4.00092E-001	1.87081E-007	0.00000E+000	3.99977E-001	1.66129E-004	7	...........	1571.46
	476	95.4	4.00090E-001	1.81665E-007	0.00000E+000	3.99977E-001	1.98310E-004	7	...........	1571.46
	504	101	4.00087E-001	9.46270E-008	0.00000E+000	3.99977E-001	1.74216E-004	7	...........	1571.36
	532	106.6	4.00058E-001	7.89986E-008	0.00000E+000	3.99977E-001	1.82219E-004	7	...........	1571.36
	560	112.2	4.00083E-001	7.47484E-008	0.00000E+000	3.99977E-001	1.94808E-004	7	...........	1571.36
	588	117.8	4.00066E-001	7.15564E-008	0.00000E+000	3.99977E-001	1.70714E-004	7	...........	1571.46
	616	123.4	4.00072E-001	1.62303E-007	0.00000E+000	3.99977E-001	1.79551E-004	7	...........	1571.36
	644	129	4.00042E-001	1.60340E-007	0.00000E+000	3.99977E-001	1.82720E-004	7	...........	1571.46
	672	134.6	4.00081E-001	1.57077E-007	0.00000E+000	3.99977E-001	1.72382E-004	7	...........	1571.46
	700	140.2	4.00031E-001	1.53438E-007	0.00000E+000	3.99977E-001	1.77967E-004	7	...........	1571.46
	728	145.8	4.00069E-001	6.49415E-008	0.00000E+000	3.99977E-001	1.52873E-004	7	...........	1571.46
	756	151.4	4.00080E-001	6.13281E-008	0.00000E+000	3.99977E-001	1.61127E-004	7	...........	1571.46
	784	157	4.00059E-001	5.87382E-008	0.00000E+000	3.99977E-001	1.98393E-004	7	...........	1571.46
	812	162.6	4.00081E-001	1.43815E-007	0.00000E+000	3.99977E-001	1.86638E-004	7	...........	1571.46
	840	168.2	4.00037E-001	1.44015E-007	0.00000E+000	3.99977E-001	1.75050E-004	7	...........	1571.46
	868	173.8	4.00066E-001	1.42940E-007	0.00000E+000	3.99977E-001	1.99977E-004	7	...........	1571.46
	896	179.4	4.00076E-001	1.39861E-007	0.00000E+000	3.99977E-001	1.79635E-004	7	...........	1571.46
	924	185	4.00072E-001	5.87348E-008	0.00000E+000	3.99977E-001	1.74132E-004	7	...........	1571.46
	952	190.6	4.00057E-001	5.32963E-008	0.00000E+000	3.99977E-001	1.80135E-004	7	...........	1571.46
	980	196.2	4.00067E-001	5.24828E-008	0.00000E+000	3.99977E-001	1.69297E-004	7	...........	1571.46
	1008	201.8	4.00066E-001	1.30967E-007	0.00000E+000	3.99977E-001	1.82469E-004	7	...........	1571.46
	1036	207.4	4.00063E-001	1.32301E-007	0.00000E+000	3.99977E-001	1.66546E-004	7	...........	1571.46
	1064	213	4.00059E-001	1.29878E-007	0.00000E+000	3.99977E-001	1.76717E-004	7	...........	1571.46
	1092	218.6	3.99991E-001	1.27085E-007	0.00000E+000	3.99977E-001	1.54040E-004	7	...........	1571.46
	1120	224.2	4.00059E-001	5.01856E-008	0.00000E+000	3.99977E-001	1.59126E-004	7	...........	1571.46
	1148	229.8	4.00053E-001	4.66488E-008	0.00000E+000	3.99977E-001	1.77967E-004	7	...........	1571.46
	1176	235.4	4.00065E-001	4.48348E-008	0.00000E+000	3.99977E-001	1.76300E-004	7	...........	1571.46
	1204	241	4.00057E-001	4.38864E-008	0.00000E+000	3.99977E-001	1.62377E-004	7	...........	1571.46
	1232	246.6	4.00040E-001	1.22719E-007	0.00000E+000	3.99977E-001	1.73632E-004	7	...........	1571.46
	1260	252.2	4.00045E-001	1.23021E-007	0.00000E+000	3.99977E-001	1.63628E-004	7	...........	1571.46
	1288	257.8	4.00014E-001	1.20603E-007	0.00000E+000	3.99977E-001	1.62211E-004	7	...........	1571.46
	1316	263.4	4.00046E-001	4.59597E-008	0.00000E+000	3.99977E-001	1.76634E-004	7	...........	1571.46
	1344	269	4.00037E-001	4.20126E-008	0.00000E+000	3.99977E-001	1.65712E-004	7	...........	1571.46
	1372	274.6	4.00045E-001	3.83805E-008	0.00000E+000	3.99977E-001	1.43286E-004	7	...........	1571.46
	1400	280.2	5.99968E-001	1.83997E-006	0.00000E+000	5.99991E-001	1.69964E-004	7	...........	1571.55
[...]
	1792	358.6	5.99970E-001	1.69855E-007	0.00000E+000	5.99991E-001	1.57042E-004	7	...........	1571.46
	1820	364.2	5.99991E-001	3.00608E-007	0.00000E+000	5.99991E-001	1.53040E-004	7	...........	1571.55
	1848	369.8	5.99988E-001	3.00120E-007	0.00000E+000	5.99991E-001	1.50039E-004	7	...........	1571.55
	1876	375.4	5.99994E-001	2.95885E-007	0.00000E+000	5.99991E-001	1.66629E-004	7	...........	1571.55
	1904	381	5.99993E-001	2.91261E-007	0.00000E+000	5.99991E-001	1.54874E-004	7	...........	1571.55
	1932	386.6	5.99981E-001	1.60639E-007	0.00000E+000	5.99991E-001	1.42702E-004	7	...........	1571.55
	1960	392.2	5.99987E-001	1.61702E-007	0.00000E+000	5.99991E-001	1.41618E-004	7	...........	1571.55
	1988	397.8	5.99926E-001	1.55017E-007	0.00000E+000	5.99991E-001	1.55291E-004	7	...........	1571.55
	2016	403.4	5.99946E-001	2.81645E-007	0.00000E+000	5.99991E-001	1.57125E-004	7	...........	1571.55
	2044	409	5.99971E-001	2.81004E-007	0.00000E+000	5.99991E-001	1.39284E-004	7	...........	1571.55
	2072	414.6	5.99992E-001	2.79662E-007	0.00000E+000	5.99991E-001	1.44620E-004	7	...........	1571.55
	2100	420.2	5.99959E-001	2.77188E-007	0.00000E+000	5.99991E-001	1.29030E-004	7	...........	1571.55
	2128	425.8	5.99982E-001	1.51936E-007	0.00000E+000	5.99991E-001	1.38784E-004	7	...........	1571.55
	2156	431.4	5.99952E-001	1.43169E-007	0.00000E+000	5.99991E-001	1.29613E-004	7	...........	1571.55
	2184	437	5.99983E-001	1.35515E-007	0.00000E+000	5.99991E-001	1.49538E-004	7	...........	1571.55
	2212	442.6	5.99991E-001	2.58929E-007	0.00000E+000	5.99991E-001	1.46287E-004	7	...........	1571.55
	2240	448.2	5.99957E-001	2.60853E-007	0.00000E+000	5.99991E-001	1.51789E-004	7	...........	1571.55
	2268	453.8	5.99979E-001	2.62961E-007	0.00000E+000	5.99991E-001	1.49205E-004	7	...........	1571.55
	2296	459.4	5.99974E-001	2.62385E-007	0.00000E+000	5.99991E-001	1.22277E-004	7	...........	1571.55
	2324	465	5.99951E-001	1.41870E-007	0.00000E+000	5.99991E-001	1.55624E-004	7	...........	1571.55
	2352	470.6	5.99951E-001	1.31344E-007	0.00000E+000	5.99991E-001	1.45120E-004	7	...........	1571.55
	2380	476.2	5.99943E-001	1.31913E-007	0.00000E+000	5.99991E-001	1.49288E-004	7	...........	1571.65
	2408	481.8	5.99973E-001	2.35006E-007	0.00000E+000	5.99991E-001	1.51789E-004	7	...........	1571.55
	2436	487.4	5.99980E-001	2.49571E-007	0.00000E+000	5.99991E-001	1.32114E-004	7	...........	1571.55
	2464	493	5.99971E-001	2.51206E-007	0.00000E+000	5.99991E-001	1.34949E-004	7	...........	1571.55
	2492	498.6	5.99980E-001	2.45964E-007	0.00000E+000	5.99991E-001	1.28363E-004	7	...........	1571.65
	2520	504.2	5.99984E-001	1.31124E-007	0.00000E+000	5.99991E-001	1.36283E-004	7	...........	1571.55
	2548	509.8	5.99974E-001	1.24867E-007	0.00000E+000	5.99991E-001	1.58459E-004	7	...........	1571.60
	2576	515.4	5.99992E-001	1.17002E-007	0.00000E+000	5.99991E-001	1.43536E-004	7	...........	1571.55
	2604	521	5.99967E-001	1.21171E-007	0.00000E+000	5.99991E-001	1.41535E-004	7	...........	1571.55
	2632	526.6	5.99970E-001	2.40733E-007	0.00000E+000	5.99991E-001	1.41118E-004	7	...........	1571.55
	2660	532.2	5.99958E-001	2.43048E-007	0.00000E+000	5.99991E-001	1.23611E-004	7	...........	1571.65
	2688	537.8	5.99996E-001	2.41602E-007	0.00000E+000	5.99991E-001	1.29363E-004	7	...........	1571.55
	2716	543.4	5.99985E-001	1.30252E-007	0.00000E+000	5.99991E-001	1.46454E-004	7	...........	1571.65
	2744	549	5.99939E-001	1.19622E-007	0.00000E+000	5.99991E-001	1.15774E-004	7	...........	1571.65
	2772	554.6	5.99940E-001	1.14642E-007	0.00000E+000	5.99991E-001	1.28696E-004	7	...........	1571.65
	2799	560	5.99947E-001	1.11274E-007	0.00000E+000	5.99991E-001	1.04686E-004	7	...........	1571.55

File: Photocurrent-M800.DTA
EXPLAIN
TAG	CHRONOA
TITLE	LABEL	Chronoamperometry Scan	Test &Identifier
DATE	LABEL	6/10/2025	Date
TIME	LABEL	16:14:45	Time
NOTES	NOTES	1	&Notes...

PSTAT	PSTAT	IFC5000-19505	Potentiostat
VPRESTEP	POTEN	0.00000E+000	F	Pre-step Voltage (V)
TPRESTEP	QUANT	1.00000E+000	Pre-step Delay &Time (s)
VSTEP1	POTEN	6.00000E-001	F	Step 1 Voltage (V)
TSTEP1	QUANT	3.20000E+002	Step 1 Time (s)
VSTEP2	POTEN	0.00000E+000	F	Step 2 Voltage (V)
TSTEP2	QUANT	0.00000E+000	Step 2 Time (s)
SAMPLETIME	QUANT	2.00000E-001	Sa&mple Period (s)
ILIMIT	QUANT	1.00000E+001	Limit &I (mA/cm^2)
IMODE	SELECTOR	0	I/E Range &Mode
IRANGE	QUANT	5.00000E+001	&Max Current (mA)
DECIMATE	TOGGLE	F	Decimate
AREA	QUANT	5.00000E-001	Electrode &Area (cm^2)
ELECTRODETYPE	SELECTOR	0	Electrode Type
STRIPPING	TOGGLE	F	Used for Stripping
EQDELAY	QUANT	1.00000E+000	Equil. &Time (s)
CONDIT	TWOPARAM	F	3.00000E+001	0.00000E+000	Conditionin&g	Time(s)	E(V)
DELAY	TWOPARAM	F	1.20000E+002	1.00000E-001	Init. De&lay	Time(s)	Stab.(mV/s)
IRCOMP	SELECTOR	0	IRCom&p
PFCOR	QUANT	1.00000E+001	PF Corr. (ohm)
SAMPLINGMODE	SELECTOR	2	Sampling &Mode
EOC	QUANT	0	Open Circuit (V)
PSTATMODEL	IQUANT	53	Pstat Model
PSTATSECTION	LABEL	IFC5000-19505	Pstat Section
PSTATSERIALNO	LABEL	19505	Pstat Serial Number
CTRLMODE	IQUANT	1	Control Mode
ELECTROMETER	IQUANT	0	RE=0 or CS=1
IESTAB	IQUANT	0	I/E Stability
CASPEED	IQUANT	4	Control Amp Speed
CONVENTION	IQUANT	1	Current Convention
ICHRANGE	IQUANT	2	Ich Range
ICHRANGEMODE	TOGGLE	T	Ich Auto Range
ICHOFFSETENABLE	TOGGLE	F	Ich Offset Enable
ICHOFFSET	QUANT	0	Ich Offset (V)
ICHFILTER	IQUANT	3	Ich Filter
VCHRANGE	IQUANT	2	Vch Range
VCHRANGEMODE	TOGGLE	F	Vch Auto Range
VCHOFFSETENABLE	TOGGLE	F	Vch Offset Enable
VCHOFFSET	QUANT	0	Vch Offset (V)
VCHFILTER	IQUANT	3	Vch Filter
IERANGELOWERLIMIT	IQUANT	7	I/E Range Lower Limit
IERANGEMODE	TOGGLE	T	I/E AutoRange
IERANGE	IQUANT	11	I/E Range
ACHSELECT	IQUANT	4	Ach Select
ACHRANGE	IQUANT	2	Ach Range
ACHOFFSETENABLE	TOGGLE	F	Ach Offset Enable
ACHOFFSET	QUANT	0	Ach Offset (V)
ACHFILTER	IQUANT	1	Ach Filter
SENSECABLEID	IQUANT	14	Sense Cable ID
PWRCABLEID	IQUANT	7	Power Cable ID
DCCALDATE	LABEL	8/27/2025	DC Calibration Date
ACCALDATE	LABEL	3/7/2024	AC Calibration Date
FRAMEWORKVERSION	LABEL	7.10.3	Framework Version
INSTRUMENTVERSION	LABEL	4.91	Instrument Version
COMMVERSION	LABEL	3.10	Communications Version
CPUPLDVERSION	LABEL	5.50	CPU PLD Version
CTRLPLDVERSION	LABEL	0.00	CTRL PLD Version
PSTATPLDVERSION	LABEL	0.00	PSTAT PLD Version
CURVE	TABLE	1605
	Pt	T	Vf	Im	Vu	Sig	Ach	IERange	Over	Temp
	#	s	V vs. Ref.	A	V	V	V	#	bits	deg C
	0	-0.8	8.60457E-005	1.81674E-005	0.00000E+000	-1.29551E-004	1.38473E-004	11	...........	1572.70
	16	2.4	5.99930E-001	6.51126E-007	0.00000E+000	5.99882E-001	1.31369E-004	7	...........	1571.46
	32	5.6	5.99951E-001	3.95095E-007	0.00000E+000	5.99882E-001	1.28234E-004	7	...........	1571.46
	48	8.8	5.99936E-001	2.55906E-007	0.00000E+000	5.99882E-001	1.26816E-004	7	...........	1571.46
	64	12	5.99930E-001	1.85678E-007	0.00000E+000	5.99882E-001	1.26733E-004	7	...........	1571.46
	80	15.2	5.99945E-001	1.40506E-007	0.00000E+000	5.99882E-001	1.43226E-004	7	...........	1571.46
	96	18.4	5.99956E-001	1.23127E-007	0.00000E+000	5.99882E-001	1.44977E-004	7	...........	1571.46
	112	21.6	5.99942E-001	1.05987E-007	0.00000E+000	5.99882E-001	1.25833E-004	7	...........	1571.46
	128	24.8	5.99919E-001	9.58079E-008	0.00000E+000	5.99882E-001	1.31636E-004	7	...........	1571.46
	144	28	5.99933E-001	8.43277E-008	0.00000E+000	5.99882E-001	1.42359E-004	7	...........	1571.46
	160	31.2	5.99928E-001	2.64910E-007	0.00000E+000	5.99882E-001	1.23481E-004	7	...........	1571.46
	176	34.4	5.99949E-001	2.49438E-007	0.00000E+000	5.99882E-001	1.32470E-004	7	...........	1571.46
	192	37.6	5.99939E-001	2.38042E-007	0.00000E+000	5.99882E-001	1.29785E-004	7	...........	1571.46
	208	40.8	5.99939E-001	2.41339E-007	0.00000E+000	5.99882E-001	1.36439E-004	7	...........	1571.46
	224	44	5.99941E-001	2.32727E-007	0.00000E+000	5.99882E-001	1.36873E-004	7	...........	1571.46
	240	47.2	5.99953E-001	2.30174E-007	0.00000E+000	5.99882E-001	1.40441E-004	7	...........	1571.46
	256	50.4	5.99943E-001	2.25649E-007	0.00000E+000	5.99882E-001	1.30619E-004	7	...........	1571.46
	272	53.6	5.99925E-001	8.50358E-008	0.00000E+000	5.99882E-001	1.14576E-004	7	...........	1571.46
	288	56.8	5.99928E-001	7.58019E-008	0.00000E+000	5.99882E-001	1.41642E-004	7	...........	1571.46
	304	60	5.99930E-001	7.14690E-008	0.00000E+000	5.99882E-001	1.33854E-004	7	...........	1571.46
	320	63.2	5.99928E-001	6.99739E-008	0.00000E+000	5.99882E-001	1.26900E-004	7	...........	1571.46
	336	66.4	5.99929E-001	7.14662E-008	0.00000E+000	5.99882E-001	1.37056E-004	7	...........	1571.46
	352	69.6	5.99927E-001	6.59861E-008	0.00000E+000	5.99882E-001	1.35872E-004	7	...........	1571.46
	368	72.8	5.99917E-001	2.15348E-007	0.00000E+000	5.99882E-001	1.22781E-004	7	...........	1571.46
	384	76	5.99944E-001	2.22237E-007	0.00000E+000	5.99882E-001	1.41926E-004	7	...........	1571.46
	400	79.2	5.99918E-001	2.18293E-007	0.00000E+000	5.99882E-001	1.14726E-004	7	...........	1571.46
	416	82.4	5.99920E-001	2.18745E-007	0.00000E+000	5.99882E-001	1.21847E-004	7	...........	1571.46
	432	85.6	5.99933E-001	2.19978E-007	0.00000E+000	5.99882E-001	1.15193E-004	7	...........	1571.46
	448	88.8	5.99906E-001	2.19705E-007	0.00000E+000	5.99882E-001	1.28167E-004	7	...........	1571.46
	464	92	5.99945E-001	8.83228E-008	0.00000E+000	5.99882E-001	1.14576E-004	7	...........	1571.46
	480	95.2	5.99937E-001	7.60427E-008	0.00000E+000	5.99882E-001	1.19912E-004	7	...........	1571.46
	496	98.4	5.99914E-001	7.07236E-008	0.00000E+000	5.99882E-001	1.22781E-004	7	...........	1571.46
	512	101.6	5.99926E-001	6.88482E-008	0.00000E+000	5.99882E-001	1.17561E-004	7	...........	1571.46
	528	104.8	5.99944E-001	6.85446E-008	0.00000E+000	5.99882E-001	1.36522E-004	7	...........	1571.46
	544	108	5.99925E-001	7.26226E-008	0.00000E+000	5.99882E-001	1.40141E-004	7	...........	1571.46
	560	111.2	5.99928E-001	1.54252E-007	0.00000E+000	5.99882E-001	1.31703E-004	7	...........	1571.46
	576	114.4	5.99946E-001	2.11612E-007	0.00000E+000	5.99882E-001	1.15843E-004	7	...........	1571.46
	592	117.6	5.99946E-001	2.15653E-007	0.00000E+000	5.99882E-001	1.06921E-004	7	...........	1571.46
	608	120.8	5.99940E-001	2.18202E-007	0.00000E+000	5.99882E-001	1.31019E-004	7	...........	1571.46
	624	124	5.99926E-001	2.18084E-007	0.00000E+000	5.99882E-001	1.26333E-004	7	...........	1571.46
	640	127.2	5.99920E-001	2.24021E-007	0.00000E+000	5.99882E-001	1.21513E-004	7	...........	1571.46
	656	130.4	5.99949E-001	2.17020E-007	0.00000E+000	5.99882E-001	1.14626E-004	7	...........	1571.46
	672	133.6	5.99934E-001	8.13670E-008	0.00000E+000	5.99882E-001	1.21947E-004	7	...........	1571.46
	688	136.8	5.99945E-001	6.87050E-008	0.00000E+000	5.99882E-001	8.74261E-005	7	...........	1571.46
	704	140	5.99923E-001	6.40491E-008	0.00000E+000	5.99882E-001	1.06588E-004	7	...........	1571.46
	720	143.2	5.99923E-001	5.95145E-008	0.00000E+000	5.99882E-001	1.16677E-004	7	...........	1571.46
	736	146.4	5.99944E-001	5.66622E-008	0.00000E+000	5.99882E-001	1.09473E-004	7	...........	1571.46
	752	149.6	5.99928E-001	5.94426E-008	0.00000E+000	5.99882E-001	1.36656E-004	7	...........	1571.46
	768	152.8	5.99948E-001	2.03650E-007	0.00000E+000	5.99882E-001	1.34054E-004	7	...........	1571.46
[...]
	1040	207.2	5.99935E-001	2.08890E-007	0.00000E+000	5.99882E-001	1.27050E-004	7	...........	1571.46
	1056	210.4	5.99929E-001	2.09148E-007	0.00000E+000	5.99882E-001	1.11941E-004	7	...........	1571.46
	1072	213.6	5.99937E-001	7.45078E-008	0.00000E+000	5.99882E-001	1.12858E-004	7	...........	1571.46
	1088	216.8	5.99925E-001	6.75067E-008	0.00000E+000	5.99882E-001	1.17327E-004	7	...........	1571.46
	1104	220	5.99931E-001	5.73254E-008	0.00000E+000	5.99882E-001	1.10924E-004	7	...........	1571.46
	1120	223.2	5.99930E-001	5.77094E-008	0.00000E+000	5.99882E-001	1.17711E-004	7	...........	1571.46
	1136	226.4	5.99935E-001	5.72071E-008	0.00000E+000	5.99882E-001	1.08405E-004	7	...........	1571.46
	1152	229.6	5.99923E-001	5.57499E-008	0.00000E+000	5.99882E-001	1.26583E-004	7	...........	1571.46
	1168	232.8	5.99945E-001	1.98970E-007	0.00000E+000	5.99882E-001	1.27367E-004	7	...........	1571.46
	1184	236	5.99933E-001	2.00731E-007	0.00000E+000	5.99882E-001	1.17127E-004	7	...........	1571.46
	1200	239.2	5.99944E-001	2.02825E-007	0.00000E+000	5.99882E-001	1.12841E-004	7	...........	1571.46
	1216	242.4	5.99932E-001	2.12709E-007	0.00000E+000	5.99882E-001	1.33187E-004	7	...........	1571.46
	1232	245.6	5.99924E-001	1.98680E-007	0.00000E+000	5.99882E-001	1.07421E-004	7	...........	1571.46
	1248	248.8	5.99942E-001	1.99401E-007	0.00000E+000	5.99882E-001	1.18161E-004	7	...........	1571.46
	1264	252	5.99947E-001	7.64578E-008	0.00000E+000	5.99882E-001	1.11507E-004	7	...........	1571.46
	1280	255.2	5.99946E-001	6.29836E-008	0.00000E+000	5.99882E-001	1.22080E-004	7	...........	1571.46
	1296	258.4	5.99927E-001	5.86506E-008	0.00000E+000	5.99882E-001	1.05420E-004	7	...........	1571.46
	1312	261.6	5.99922E-001	5.68473E-008	0.00000E+000	5.99882E-001	1.23648E-004	7	...........	1571.46
	1328	264.8	5.99923E-001	5.58744E-008	0.00000E+000	5.99882E-001	1.13725E-004	7	...........	1571.46
	1344	268	5.99929E-001	5.51955E-008	0.00000E+000	5.99882E-001	1.14843E-004	7	...........	1571.46
	1360	271.2	5.99935E-001	5.46107E-008	0.00000E+000	5.99882E-001	1.29635E-004	7	...........	1571.46
	1376	274.4	5.99920E-001	1.97796E-007	0.00000E+000	5.99882E-001	1.31136E-004	7	...........	1571.46
	1392	277.6	5.99928E-001	1.99480E-007	0.00000E+000	5.99882E-001	1.11391E-004	7	...........	1571.46
	1408	280.8	5.99932E-001	2.01512E-007	0.00000E+000	5.99882E-001	1.14159E-004	7	...........	1571.46
	1424	284	5.99927E-001	2.02475E-007	0.00000E+000	5.99882E-001	1.21030E-004	7	...........	1571.46
	1440	287.2	5.99938E-001	2.02611E-007	0.00000E+000	5.99882E-001	1.03703E-004	7	...........	1571.46
	1456	290.4	5.99931E-001	2.03756E-007	0.00000E+000	5.99882E-001	1.18228E-004	7	...........	1571.46
	1472	293.6	5.99939E-001	6.99275E-008	0.00000E+000	5.99882E-001	1.29251E-004	7	...........	1571.46
	1488	296.8	5.99941E-001	6.28763E-008	0.00000E+000	5.99882E-001	1.16894E-004	7	...........	1571.46
	1504	300	5.99922E-001	5.91153E-008	0.00000E+000	5.99882E-001	1.24115E-004	7	...........	1571.46
	1520	303.2	5.99935E-001	5.73567E-008	0.00000E+000	5.99882E-001	1.20162E-004	7	...........	1571.46
	1536	306.4	5.99914E-001	5.63892E-008	0.00000E+000	5.99882E-001	1.13775E-004	7	...........	1571.46
	1552	309.6	5.99907E-001	5.57233E-008	0.00000E+000	5.99882E-001	1.09840E-004	7	...........	1571.46
	1568	312.8	5.99934E-001	5.13112E-008	0.00000E+000	5.99882E-001	1.20263E-004	7	...........	1571.46
	1584	316	5.99937E-001	5.03757E-008	0.00000E+000	5.99882E-001	1.25732E-004	7	...........	1571.46
	1600	319.2	5.99931E-001	5.07304E-008	0.00000E+000	5.99882E-001	1.17594E-004	7	...........	1571.46
	1604	320	5.99928E-001	5.09414E-008	0.00000E+000	5.99882E-001	1.27200E-004	7	...........	1571.46