Folder: Py_elchem/data/photocurrent

Note: README.md
#Electrochemical data analysis library

##Photocurrent analysis


##Nyquist plot

###Equivalent Circuit fitting

File: Photocurrent-MA.DTA
EXPLAIN
TAG	MULTI_STEP_CHRONOA
TITLE	LABEL	Chronoamperometry Scan	Test &Identifier
DATE	LABEL	4/8/2025	Date
TIME	LABEL	14:33:00	Time
PSTAT	PSTAT	IFC5000-19505	Potentiostat
NOTES	NOTES	1	&Notes...

AREA	QUANT	5.00000E-001	Sample &Area (cm^2)
ELECTRODETYPE	SELECTOR	0	Electrode Type
STRIPPING	TOGGLE	F	Used for Stripping
VSTEP0	POTEN	0.00000E+000	F	Step &1 (V)
TSTEP0	QUANT	2.80000E+002	Time &1 (s)
VSTEP1	POTEN	2.00000E-001	F	Step &2 (V)
TSTEP1	QUANT	2.80000E+002	Time &2 (s)
VSTEP2	POTEN	4.00000E-001	F	Step &3 (V)
TSTEP2	QUANT	2.80000E+002	Time &3 (s)
VSTEP3	POTEN	6.00000E-001	F	Step &4 (V)
TSTEP3	QUANT	2.80000E+002	Time &4 (s)
VSTEP4	POTEN	8.00000E-001	F	Step &5 (V)
TSTEP4	QUANT	2.80000E+002	Time &5 (s)
VSTEP5	POTEN	1.00000E+000	F	Step &6 (V)
TSTEP5	QUANT	2.80000E+002	Time &6 (s)
SAMPLETIME	QUANT	2.00000E-001	Sa&mple Period (s)
CONDIT	TWOPARAM	T	3.00000E+001	0.00000E+000	Conditionin&g	Time(s)	E(V)
DELAY	TWOPARAM	F	3.00000E+002	1.00000E-001	Init. De&lay	Time(s)	Stab.(mV/s)
EQDELAY	QUANT	0.00000E+000	Equil. &Time (s)
ILIMIT	QUANT	1.00000E+001	Limit &I (mA/cm^2)
IRANGE	QUANT	5.00000E+003	&Max Current (mA)
IRCOMP	SELECTOR	0	IRCom&p
PFCOR	QUANT	5.00000E+001	PF Corr. (ohm)
EOC	QUANT	0	Open Circuit (V)
PSTATMODEL	IQUANT	53	Pstat Model
PSTATSECTION	LABEL	IFC5000-19505	Pstat Section
PSTATSERIALNO	LABEL	19505	Pstat Serial Number
CTRLMODE	IQUANT	1	Control Mode
ELECTROMETER	IQUANT	0	RE=0 or CS=1
IESTAB	IQUANT	2	I/E Stability
CASPEED	IQUANT	4	Control Amp Speed
CONVENTION	IQUANT	1	Current Convention
ICHRANGE	IQUANT	2	Ich Range
ICHRANGEMODE	TOGGLE	F	Ich Auto Range
ICHOFFSETENABLE	TOGGLE	F	Ich Offset Enable
ICHOFFSET	QUANT	0	Ich Offset (V)
ICHFILTER	IQUANT	3	Ich Filter
VCHRANGE	IQUANT	2	Vch Range
VCHRANGEMODE	TOGGLE	F	Vch Auto Range
VCHOFFSETENABLE	TOGGLE	F	Vch Offset Enable
VCHOFFSET	QUANT	0	Vch Offset (V)
VCHFILTER	IQUANT	3	Vch Filter
IERANGELOWERLIMIT	IQUANT	7	I/E Range Lower Limit
IERANGEMODE	TOGGLE	T	I/E AutoRange
IERANGE	IQUANT	12	I/E Range
ACHSELECT	IQUANT	4	Ach Select
ACHRANGE	IQUANT	2	Ach Range
ACHOFFSETENABLE	TOGGLE	F	Ach Offset Enable
ACHOFFSET	QUANT	0	Ach Offset (V)
ACHFILTER	IQUANT	1	Ach Filter
SENSECABLEID	IQUANT	14	Sense Cable ID
PWRCABLEID	IQUANT	7	Power Cable ID
DCCALDATE	LABEL	8/4/2025	DC Calibration Date
ACCALDATE	LABEL	3/7/2024	AC Calibration Date
FRAMEWORKVERSION	LABEL	7.10.3	Framework Version
INSTRUMENTVERSION	LABEL	4.91	Instrument Version
COMMVERSION	LABEL	3.10	Communications Version
CPUPLDVERSION	LABEL	5.50	CPU PLD Version
CTRLPLDVERSION	LABEL	0.00	CTRL PLD Version
PSTATPLDVERSION	LABEL	0.00	PSTAT PLD Version
Curve	TABLE	8400
	Pt	T	Vf	Im	Vu	Sig	Ach	IERange	Over	Temp
	#	s	V vs. Ref.	A	V	V	V	#	bits	deg C
	0	0.2	-5.62137E-004	-8.34525E-004	0.00000E+000	0.00000E+000	-5.26256E-004	12	...........	1572.98
	85	17.2	-6.00233E-004	2.14018E-008	0.00000E+000	0.00000E+000	-5.40429E-004	7	...........	1572.60
	170	34.2	-6.00733E-004	-2.80929E-008	0.00000E+000	0.00000E+000	-5.18502E-004	7	...........	1572.60
	255	51.2	-5.40797E-004	2.52543E-008	0.00000E+000	0.00000E+000	-5.06831E-004	7	...........	1572.60
	340	68.2	-5.54551E-004	-2.01063E-008	0.00000E+000	0.00000E+000	-5.38094E-004	7	...........	1572.60
	425	85.2	-5.54468E-004	2.62527E-008	0.00000E+000	0.00000E+000	-4.99911E-004	7	...........	1572.60
	510	102.2	-5.58136E-004	-1.52463E-008	0.00000E+000	0.00000E+000	-5.75360E-004	7	...........	1572.60
	595	119.2	-5.86228E-004	-1.48889E-008	0.00000E+000	0.00000E+000	-5.30007E-004	7	...........	1572.60
	680	136.2	-6.02983E-004	2.57625E-008	0.00000E+000	0.00000E+000	-5.09415E-004	7	...........	1572.60
	765	153.2	-5.62971E-004	-1.20237E-008	0.00000E+000	0.00000E+000	-5.21754E-004	7	...........	1572.60
	850	170.2	-5.44548E-004	2.59565E-008	0.00000E+000	0.00000E+000	-5.46848E-004	7	...........	1572.60
	935	187.2	-5.43964E-004	-1.03279E-008	0.00000E+000	0.00000E+000	-5.22337E-004	7	...........	1572.60
	1020	204.2	-5.65888E-004	2.67026E-008	0.00000E+000	0.00000E+000	-5.13917E-004	7	...........	1572.60
	1105	221.2	-5.30960E-004	2.53461E-008	0.00000E+000	0.00000E+000	-5.55185E-004	7	...........	1572.60
	1190	238.2	-5.63221E-004	-8.02792E-009	0.00000E+000	0.00000E+000	-5.27673E-004	7	...........	1572.60
	1275	255.2	-5.60803E-004	2.56805E-008	0.00000E+000	0.00000E+000	-5.44847E-004	7	...........	1572.60
	1360	272.2	-6.05067E-004	-7.64204E-009	0.00000E+000	0.00000E+000	-5.34509E-004	7	...........	1572.60
	1445	289.2	1.99369E-001	1.52275E-007	0.00000E+000	2.00014E-001	-5.24505E-004	7	...........	1572.60
	1530	306.2	1.99400E-001	3.80105E-008	0.00000E+000	2.00014E-001	-5.21837E-004	7	...........	1572.60
	1615	323.2	1.99399E-001	1.02612E-007	0.00000E+000	2.00014E-001	-5.40345E-004	7	...........	1572.60
	1700	340.2	1.99375E-001	9.57220E-008	0.00000E+000	2.00014E-001	-5.03663E-004	7	...........	1572.60
	1785	357.2	1.99344E-001	2.12001E-008	0.00000E+000	2.00014E-001	-5.40929E-004	7	...........	1572.60
	1870	374.2	1.99368E-001	8.99095E-008	0.00000E+000	2.00014E-001	-5.34343E-004	7	...........	1572.60
	1955	391.2	1.99395E-001	1.93542E-008	0.00000E+000	2.00014E-001	-5.30424E-004	7	...........	1572.60
	2040	408.2	1.99400E-001	8.44509E-008	0.00000E+000	2.00014E-001	-5.18336E-004	7	...........	1572.60
	2125	425.2	1.99366E-001	1.96163E-008	0.00000E+000	2.00014E-001	-5.23254E-004	7	...........	1572.60
	2210	442.2	1.99416E-001	1.69742E-008	0.00000E+000	2.00014E-001	-5.47682E-004	7	...........	1572.60
	2295	459.2	1.99415E-001	8.02820E-008	0.00000E+000	2.00014E-001	-5.33926E-004	7	...........	1572.60
	2380	476.2	1.99407E-001	1.57193E-008	0.00000E+000	2.00014E-001	-5.47265E-004	7	...........	1572.60
	2465	493.2	1.99394E-001	7.79354E-008	0.00000E+000	2.00014E-001	-5.36844E-004	7	...........	1572.60
	2550	510.2	1.99388E-001	1.68115E-008	0.00000E+000	2.00014E-001	-5.38428E-004	7	...........	1572.60
	2635	527.2	1.99415E-001	7.59435E-008	0.00000E+000	2.00014E-001	-5.38511E-004	7	...........	1572.60
	2720	544.2	1.99331E-001	1.77877E-008	0.00000E+000	2.00014E-001	-5.09082E-004	7	...........	1572.60
	2805	561.2	3.99249E-001	4.15335E-007	0.00000E+000	3.99977E-001	-5.35426E-004	7	...........	1572.60
	2890	578.2	3.99296E-001	2.21338E-007	0.00000E+000	3.99977E-001	-5.04330E-004	7	...........	1572.60
	2975	595.2	3.99260E-001	6.91131E-008	0.00000E+000	3.99977E-001	-5.36594E-004	7	...........	1572.60
	3060	612.2	3.99248E-001	1.82760E-007	0.00000E+000	3.99977E-001	-5.75861E-004	7	...........	1572.60
	3145	629.2	3.99273E-001	5.79859E-008	0.00000E+000	3.99977E-001	-5.13333E-004	7	...........	1572.60
	3230	646.2	3.99283E-001	1.63032E-007	0.00000E+000	3.99977E-001	-5.33759E-004	7	...........	1572.60
	3315	663.2	3.99284E-001	5.36230E-008	0.00000E+000	3.99977E-001	-5.31425E-004	7	...........	1572.70
	3400	680.2	3.99271E-001	3.91049E-008	0.00000E+000	3.99977E-001	-5.26673E-004	7	...........	1572.70
	3485	697.2	3.99235E-001	1.50168E-007	0.00000E+000	3.99977E-001	-5.46431E-004	7	...........	1572.60
	3570	714.2	3.99276E-001	3.66777E-008	0.00000E+000	3.99977E-001	-5.08832E-004	7	...........	1572.60
	3655	731.2	3.99222E-001	1.44675E-007	0.00000E+000	3.99977E-001	-5.26423E-004	7	...........	1572.70
	3740	748.2	3.99264E-001	4.92601E-008	0.00000E+000	3.99977E-001	-5.38845E-004	7	...........	1572.60
	3825	765.2	3.99256E-001	1.39196E-007	0.00000E+000	3.99977E-001	-5.43347E-004	7	...........	1572.70
[...]
	5440	1088.2	5.99175E-001	2.58470E-007	0.00000E+000	5.99991E-001	-5.44180E-004	7	...........	1572.70
	5525	1105.2	5.99156E-001	1.00137E-007	0.00000E+000	5.99991E-001	-5.26839E-004	7	...........	1572.70
	5610	1122.2	7.99151E-001	1.20285E-006	0.00000E+000	8.00004E-001	-5.24422E-004	7	...........	1572.70
	5695	1139.2	7.99182E-001	8.53320E-007	0.00000E+000	8.00004E-001	-5.37927E-004	7	...........	1572.70
	5780	1156.2	7.99159E-001	4.15389E-007	0.00000E+000	8.00004E-001	-5.49182E-004	7	...........	1572.70
	5865	1173.2	7.99152E-001	6.82174E-007	0.00000E+000	8.00004E-001	-5.63439E-004	7	...........	1572.70
	5950	1190.2	7.99123E-001	3.48840E-007	0.00000E+000	8.00004E-001	-5.42596E-004	7	...........	1572.70
	6035	1207.2	7.99176E-001	6.14881E-007	0.00000E+000	8.00004E-001	-5.28673E-004	7	...........	1572.70
	6120	1224.2	7.99166E-001	6.05324E-007	0.00000E+000	8.00004E-001	-5.40179E-004	7	...........	1572.70
	6205	1241.2	7.99148E-001	2.85546E-007	0.00000E+000	8.00004E-001	-5.51350E-004	7	...........	1572.60
	6290	1258.2	7.99115E-001	5.82906E-007	0.00000E+000	8.00004E-001	-5.46098E-004	7	...........	1572.70
	6375	1275.2	7.99138E-001	2.74873E-007	0.00000E+000	8.00004E-001	-5.41679E-004	7	...........	1572.70
	6460	1292.2	7.99108E-001	5.51714E-007	0.00000E+000	8.00004E-001	-5.56769E-004	7	...........	1572.70
	6545	1309.2	7.99185E-001	2.73655E-007	0.00000E+000	8.00004E-001	-5.42179E-004	7	...........	1572.70
	6630	1326.2	7.99174E-001	5.25143E-007	0.00000E+000	8.00004E-001	-5.61271E-004	7	...........	1572.70
	6715	1343.2	7.99161E-001	5.28419E-007	0.00000E+000	8.00004E-001	-5.52434E-004	7	...........	1572.70
	6800	1360.2	7.99189E-001	2.40499E-007	0.00000E+000	8.00004E-001	-5.41429E-004	7	...........	1572.70
	6885	1377.2	7.99187E-001	5.12064E-007	0.00000E+000	8.00004E-001	-5.38511E-004	7	...........	1572.70
	6970	1394.2	7.99161E-001	2.40417E-007	0.00000E+000	8.00004E-001	-5.47432E-004	7	...........	1572.70
	7055	1411.2	9.99117E-001	1.81529E-006	0.00000E+000	1.00002E+000	-5.40095E-004	7	...........	1572.70
	7140	1428.2	9.99136E-001	1.04425E-006	0.00000E+000	1.00002E+000	-5.36844E-004	7	...........	1572.70
	7225	1445.2	9.99137E-001	1.32169E-006	0.00000E+000	1.00002E+000	-5.25339E-004	7	...........	1572.70
	7310	1462.2	9.99074E-001	1.30864E-006	0.00000E+000	1.00002E+000	-5.58020E-004	7	...........	1572.70
	7395	1479.2	9.99122E-001	7.58518E-007	0.00000E+000	1.00002E+000	-5.74277E-004	7	...........	1572.70
	7480	1496.2	9.99144E-001	1.19926E-006	0.00000E+000	1.00002E+000	-5.55685E-004	7	...........	1572.70
	7565	1513.2	9.99134E-001	7.26012E-007	0.00000E+000	1.00002E+000	-5.52184E-004	7	...........	1572.70
	7650	1530.2	9.99122E-001	1.11829E-006	0.00000E+000	1.00002E+000	-5.55685E-004	7	...........	1572.70
	7735	1547.2	9.99116E-001	7.34826E-007	0.00000E+000	1.00002E+000	-5.16418E-004	7	...........	1572.70
	7820	1564.2	9.99134E-001	6.37248E-007	0.00000E+000	1.00002E+000	-5.73860E-004	7	...........	1572.70
	7905	1581.2	9.99116E-001	1.09489E-006	0.00000E+000	1.00002E+000	-5.39595E-004	7	...........	1572.70
	7990	1598.2	9.99123E-001	6.33709E-007	0.00000E+000	1.00002E+000	-5.54935E-004	7	...........	1572.70
	8075	1615.2	9.99128E-001	1.05145E-006	0.00000E+000	1.00002E+000	-5.34843E-004	7	...........	1572.70
	8160	1632.2	9.99080E-001	6.41858E-007	0.00000E+000	1.00002E+000	-5.14251E-004	7	...........	1572.70
	8245	1649.2	9.99146E-001	1.00142E-006	0.00000E+000	1.00002E+000	-5.43347E-004	7	...........	1572.70
	8330	1666.2	9.99128E-001	6.82783E-007	0.00000E+000	1.00002E+000	-5.38678E-004	7	...........	1572.70
	8399	1680	9.99149E-001	5.94835E-007	0.00000E+000	1.00002E+000	-5.35260E-004	7	...........	1572.70

File: Photocurrent-MB.DTA
EXPLAIN
TAG	MULTI_STEP_CHRONOA
TITLE	LABEL	Chronoamperometry Scan	Test &Identifier
DATE	LABEL	5/8/2025	Date
TIME	LABEL	12:06:03	Time
PSTAT	PSTAT	IFC5000-19505	Potentiostat
NOTES	NOTES	1	&Notes...

AREA	QUANT	5.00000E-001	Sample &Area (cm^2)
ELECTRODETYPE	SELECTOR	0	Electrode Type
STRIPPING	TOGGLE	F	Used for Stripping
VSTEP0	POTEN	0.00000E+000	F	Step &1 (V)
TSTEP0	QUANT	2.80000E+002	Time &1 (s)
VSTEP1	POTEN	2.00000E-001	F	Step &2 (V)
TSTEP1	QUANT	2.80000E+002	Time &2 (s)
VSTEP2	POTEN	4.00000E-001	F	Step &3 (V)
TSTEP2	QUANT	2.80000E+002	Time &3 (s)
VSTEP3	POTEN	6.00000E-001	F	Step &4 (V)
TSTEP3	QUANT	2.80000E+002	Time &4 (s)
VSTEP4	POTEN	8.00000E-001	F	Step &5 (V)
TSTEP4	QUANT	2.80000E+002	Time &5 (s)
VSTEP5	POTEN	1.00000E+000	F	Step &6 (V)
TSTEP5	QUANT	2.80000E+002	Time &6 (s)
SAMPLETIME	QUANT	2.00000E-001	Sa&mple Period (s)
CONDIT	TWOPARAM	T	3.00000E+001	0.00000E+000	Conditionin&g	Time(s)	E(V)
DELAY	TWOPARAM	F	3.00000E+002	1.00000E-001	Init. De&lay	Time(s)	Stab.(mV/s)
EQDELAY	QUANT	0.00000E+000	Equil. &Time (s)
ILIMIT	QUANT	1.00000E+001	Limit &I (mA/cm^2)
IRANGE	QUANT	5.00000E+003	&Max Current (mA)
IRCOMP	SELECTOR	0	IRCom&p
PFCOR	QUANT	5.00000E+001	PF Corr. (ohm)
EOC	QUANT	0	Open Circuit (V)
PSTATMODEL	IQUANT	53	Pstat Model
PSTATSECTION	LABEL	IFC5000-19505	Pstat Section
PSTATSERIALNO	LABEL	19505	Pstat Serial Number
CTRLMODE	IQUANT	1	Control Mode
ELECTROMETER	IQUANT	0	RE=0 or CS=1
IESTAB	IQUANT	2	I/E Stability
CASPEED	IQUANT	4	Control Amp Speed
CONVENTION	IQUANT	1	Current Convention
ICHRANGE	IQUANT	2	Ich Range
ICHRANGEMODE	TOGGLE	F	Ich Auto Range
ICHOFFSETENABLE	TOGGLE	F	Ich Offset Enable
ICHOFFSET	QUANT	0	Ich Offset (V)
ICHFILTER	IQUANT	3	Ich Filter
VCHRANGE	IQUANT	2	Vch Range
VCHRANGEMODE	TOGGLE	F	Vch Auto Range
VCHOFFSETENABLE	TOGGLE	F	Vch Offset Enable
VCHOFFSET	QUANT	0	Vch Offset (V)
VCHFILTER	IQUANT	3	Vch Filter
IERANGELOWERLIMIT	IQUANT	7	I/E Range Lower Limit
IERANGEMODE	TOGGLE	T	I/E AutoRange
IERANGE	IQUANT	12	I/E Range
ACHSELECT	IQUANT	4	Ach Select
ACHRANGE	IQUANT	2	Ach Range
ACHOFFSETENABLE	TOGGLE	F	Ach Offset Enable
ACHOFFSET	QUANT	0	Ach Offset (V)
ACHFILTER	IQUANT	1	Ach Filter
SENSECABLEID	IQUANT	14	Sense Cable ID
PWRCABLEID	IQUANT	7	Power Cable ID
DCCALDATE	LABEL	8/4/2025	DC Calibration Date
ACCALDATE	LABEL	3/7/2024	AC Calibration Date
FRAMEWORKVERSION	LABEL	7.10.3	Framework Version
INSTRUMENTVERSION	LABEL	4.91	Instrument Version
COMMVERSION	LABEL	3.10	Communications Version
CPUPLDVERSION	LABEL	5.50	CPU PLD Version
CTRLPLDVERSION	LABEL	0.00	CTRL PLD Version
PSTATPLDVERSION	LABEL	0.00	PSTAT PLD Version
Curve	TABLE	8400
	Pt	T	Vf	Im	Vu	Sig	Ach	IERange	Over	Temp
	#	s	V vs. Ref.	A	V	V	V	#	bits	deg C
	0	0.2	-5.41964E-004	-7.87832E-004	0.00000E+000	0.00000E+000	-4.80402E-004	12	...........	1572.98
	85	17.2	-5.58302E-004	5.15622E-008	0.00000E+000	0.00000E+000	-4.84071E-004	7	...........	1572.51
	170	34.2	-5.40213E-004	-2.59438E-008	0.00000E+000	0.00000E+000	-4.67647E-004	7	...........	1572.51
	255	51.2	-5.24708E-004	5.73983E-008	0.00000E+000	0.00000E+000	-4.72232E-004	7	...........	1572.51
	340	68.2	-5.25792E-004	-1.42263E-008	0.00000E+000	0.00000E+000	-4.97827E-004	7	...........	1572.51
	425	85.2	-4.95115E-004	6.21464E-008	0.00000E+000	0.00000E+000	-4.83237E-004	7	...........	1572.51
	510	102.2	-4.94949E-004	-3.23746E-009	0.00000E+000	0.00000E+000	-4.65729E-004	7	...........	1572.51
	595	119.2	-5.07536E-004	-6.04221E-009	0.00000E+000	0.00000E+000	-4.76151E-004	7	...........	1572.51
	680	136.2	-5.07369E-004	6.04339E-008	0.00000E+000	0.00000E+000	-4.87822E-004	7	...........	1572.51
	765	153.2	-4.96699E-004	-3.07894E-009	0.00000E+000	0.00000E+000	-4.75400E-004	7	...........	1572.51
	850	170.2	-5.58552E-004	5.96761E-008	0.00000E+000	0.00000E+000	-5.12250E-004	7	...........	1572.51
	935	187.2	-5.35545E-004	1.58915E-009	0.00000E+000	0.00000E+000	-4.77485E-004	7	...........	1572.51
	1020	204.2	-4.95282E-004	6.18099E-008	0.00000E+000	0.00000E+000	-4.77068E-004	7	...........	1572.51
	1105	221.2	-5.47549E-004	6.05354E-008	0.00000E+000	0.00000E+000	-4.90240E-004	7	...........	1572.51
	1190	238.2	-4.86446E-004	3.68194E-009	0.00000E+000	0.00000E+000	-4.98994E-004	7	...........	1572.51
	1275	255.2	-5.07870E-004	6.01565E-008	0.00000E+000	0.00000E+000	-4.63062E-004	7	...........	1572.51
	1360	272.2	-4.99700E-004	4.97237E-009	0.00000E+000	0.00000E+000	-4.86322E-004	7	...........	1572.51
	1445	289.2	1.99434E-001	2.97683E-007	0.00000E+000	2.00014E-001	-4.72732E-004	7	...........	1572.51
	1530	306.2	1.99445E-001	8.49550E-008	0.00000E+000	2.00014E-001	-4.91741E-004	7	...........	1572.51
	1615	323.2	1.99429E-001	1.85972E-007	0.00000E+000	2.00014E-001	-4.82153E-004	7	...........	1572.51
	1700	340.2	1.99428E-001	1.67952E-007	0.00000E+000	2.00014E-001	-4.85988E-004	7	...........	1572.51
	1785	357.2	1.99410E-001	4.78995E-008	0.00000E+000	2.00014E-001	-4.97160E-004	7	...........	1572.51
	1870	374.2	1.99446E-001	1.56901E-007	0.00000E+000	2.00014E-001	-4.87989E-004	7	...........	1572.51
	1955	391.2	1.99450E-001	4.30875E-008	0.00000E+000	2.00014E-001	-4.90740E-004	7	...........	1572.51
	2040	408.2	1.99457E-001	1.49133E-007	0.00000E+000	2.00014E-001	-4.76151E-004	7	...........	1572.51
	2125	425.2	1.99447E-001	4.26835E-008	0.00000E+000	2.00014E-001	-4.74650E-004	7	...........	1572.51
	2210	442.2	1.99460E-001	3.74814E-008	0.00000E+000	2.00014E-001	-5.09665E-004	7	...........	1572.51
	2295	459.2	1.99467E-001	1.39085E-007	0.00000E+000	2.00014E-001	-4.70982E-004	7	...........	1572.51
	2380	476.2	1.99456E-001	3.53942E-008	0.00000E+000	2.00014E-001	-4.89490E-004	7	...........	1572.51
	2465	493.2	1.99456E-001	1.35742E-007	0.00000E+000	2.00014E-001	-4.91491E-004	7	...........	1572.51
	2550	510.2	1.99450E-001	3.51370E-008	0.00000E+000	2.00014E-001	-5.09832E-004	7	...........	1572.51
	2635	527.2	1.99417E-001	1.31558E-007	0.00000E+000	2.00014E-001	-4.90490E-004	7	...........	1572.51
	2720	544.2	1.99408E-001	3.79125E-008	0.00000E+000	2.00014E-001	-4.81069E-004	7	...........	1572.51
	2805	561.2	3.99300E-001	1.25092E-006	0.00000E+000	3.99977E-001	-4.66480E-004	7	...........	1572.51
	2890	578.2	3.99317E-001	4.15440E-007	0.00000E+000	3.99977E-001	-4.60227E-004	7	...........	1572.51
	2975	595.2	3.99305E-001	1.51841E-007	0.00000E+000	3.99977E-001	-4.72983E-004	7	...........	1572.51
	3060	612.2	3.99308E-001	3.20237E-007	0.00000E+000	3.99977E-001	-5.04997E-004	7	...........	1572.51
	3145	629.2	3.99326E-001	1.09708E-007	0.00000E+000	3.99977E-001	-5.09832E-004	7	...........	1572.51
	3230	646.2	3.99298E-001	2.87087E-007	0.00000E+000	3.99977E-001	-4.64896E-004	7	...........	1572.51
	3315	663.2	3.99297E-001	1.25864E-007	0.00000E+000	3.99977E-001	-4.67147E-004	7	...........	1572.51
	3400	680.2	3.99320E-001	8.13708E-008	0.00000E+000	3.99977E-001	-4.58310E-004	7	...........	1572.51
	3485	697.2	3.99307E-001	2.55275E-007	0.00000E+000	3.99977E-001	-5.03746E-004	7	...........	1572.51
	3570	714.2	3.99312E-001	7.48714E-008	0.00000E+000	3.99977E-001	-4.70481E-004	7	...........	1572.51
	3655	731.2	3.99307E-001	2.42559E-007	0.00000E+000	3.99977E-001	-4.85155E-004	7	...........	1572.51
	3740	748.2	3.99315E-001	6.62388E-008	0.00000E+000	3.99977E-001	-4.61144E-004	7	...........	1572.51
	3825	765.2	3.99302E-001	2.30623E-007	0.00000E+000	3.99977E-001	-4.74066E-004	7	...........	1572.51
[...]
	5440	1088.2	5.99269E-001	4.24086E-007	0.00000E+000	5.99991E-001	-4.99327E-004	7	...........	1572.60
	5525	1105.2	5.99217E-001	1.82762E-007	0.00000E+000	5.99991E-001	-4.74400E-004	7	...........	1572.60
	5610	1122.2	7.99208E-001	1.87179E-006	0.00000E+000	8.00004E-001	-4.86989E-004	7	...........	1572.60
	5695	1139.2	7.99212E-001	1.49677E-006	0.00000E+000	8.00004E-001	-4.91741E-004	7	...........	1572.60
	5780	1156.2	7.99243E-001	8.31651E-007	0.00000E+000	8.00004E-001	-4.98660E-004	7	...........	1572.60
	5865	1173.2	7.99182E-001	1.22974E-006	0.00000E+000	8.00004E-001	-4.93491E-004	7	...........	1572.60
	5950	1190.2	7.99167E-001	7.15714E-007	0.00000E+000	8.00004E-001	-4.97243E-004	7	...........	1572.60
	6035	1207.2	7.99196E-001	1.09785E-006	0.00000E+000	8.00004E-001	-5.05330E-004	7	...........	1572.60
	6120	1224.2	7.99214E-001	1.08018E-006	0.00000E+000	8.00004E-001	-4.92491E-004	7	...........	1572.60
	6205	1241.2	7.99195E-001	5.97775E-007	0.00000E+000	8.00004E-001	-4.91407E-004	7	...........	1572.60
	6290	1258.2	7.99201E-001	1.01289E-006	0.00000E+000	8.00004E-001	-5.09832E-004	7	...........	1572.60
	6375	1275.2	7.99206E-001	5.68024E-007	0.00000E+000	8.00004E-001	-4.95909E-004	7	...........	1572.60
	6460	1292.2	7.99218E-001	9.74857E-007	0.00000E+000	8.00004E-001	-4.85821E-004	7	...........	1572.60
	6545	1309.2	7.99232E-001	5.62986E-007	0.00000E+000	8.00004E-001	-4.90824E-004	7	...........	1572.51
	6630	1326.2	7.99233E-001	9.21000E-007	0.00000E+000	8.00004E-001	-4.63979E-004	7	...........	1572.60
	6715	1343.2	7.99207E-001	9.35377E-007	0.00000E+000	8.00004E-001	-4.62811E-004	7	...........	1572.60
	6800	1360.2	7.99207E-001	5.08315E-007	0.00000E+000	8.00004E-001	-4.90907E-004	7	...........	1572.60
	6885	1377.2	7.99203E-001	9.12273E-007	0.00000E+000	8.00004E-001	-4.75067E-004	7	...........	1572.60
	6970	1394.2	7.99219E-001	4.95516E-007	0.00000E+000	8.00004E-001	-4.98827E-004	7	...........	1572.60
	7055	1411.2	9.99200E-001	2.75439E-006	0.00000E+000	1.00002E+000	-4.66063E-004	7	...........	1572.60
	7140	1428.2	9.99187E-001	1.84401E-006	0.00000E+000	1.00002E+000	-4.91741E-004	7	...........	1572.60
	7225	1445.2	9.99199E-001	2.24267E-006	0.00000E+000	1.00002E+000	-4.73483E-004	7	...........	1572.60
	7310	1462.2	9.99185E-001	2.38219E-006	0.00000E+000	1.00002E+000	-4.90157E-004	7	...........	1572.60
	7395	1479.2	9.99149E-001	1.45967E-006	0.00000E+000	1.00002E+000	-4.75901E-004	7	...........	1572.60
	7480	1496.2	9.99170E-001	2.10010E-006	0.00000E+000	1.00002E+000	-5.05663E-004	7	...........	1572.60
	7565	1513.2	9.99198E-001	1.35595E-006	0.00000E+000	1.00002E+000	-5.03996E-004	7	...........	1572.60
	7650	1530.2	9.99176E-001	1.75049E-006	0.00000E+000	1.00002E+000	-4.84237E-004	7	...........	1572.60
	7735	1547.2	9.99166E-001	1.22844E-006	0.00000E+000	1.00002E+000	-4.91157E-004	7	...........	1572.60
	7820	1564.2	9.99172E-001	1.06688E-006	0.00000E+000	1.00002E+000	-5.07831E-004	7	...........	1572.60
	7905	1581.2	9.99158E-001	1.72723E-006	0.00000E+000	1.00002E+000	-5.22337E-004	7	...........	1572.60
	7990	1598.2	9.99164E-001	1.05695E-006	0.00000E+000	1.00002E+000	-4.91491E-004	7	...........	1572.60
	8075	1615.2	9.99161E-001	1.64968E-006	0.00000E+000	1.00002E+000	-5.11583E-004	7	...........	1572.60
	8160	1632.2	9.99193E-001	1.05606E-006	0.00000E+000	1.00002E+000	-5.03329E-004	7	...........	1572.60
	8245	1649.2	9.99177E-001	1.57033E-006	0.00000E+000	1.00002E+000	-4.97827E-004	7	...........	1572.60
	8330	1666.2	9.99181E-001	1.13726E-006	0.00000E+000	1.00002E+000	-5.21004E-004	7	...........	1572.60
	8399	1680	9.99134E-001	9.66199E-007	0.00000E+000	1.00002E+000	-5.06247E-004	7	...........	1572.60