Folder: Py_elchem/data/photocurrent (part 2)

File: Photocurrent-MC.DTA
EXPLAIN
TAG	MULTI_STEP_CHRONOA
TITLE	LABEL	Chronoamperometry Scan	Test &Identifier
DATE	LABEL	5/8/2025	Date
TIME	LABEL	12:44:52	Time
PSTAT	PSTAT	IFC5000-19505	Potentiostat
NOTES	NOTES	1	&Notes...

AREA	QUANT	5.00000E-001	Sample &Area (cm^2)
ELECTRODETYPE	SELECTOR	0	Electrode Type
STRIPPING	TOGGLE	F	Used for Stripping
VSTEP0	POTEN	0.00000E+000	F	Step &1 (V)
TSTEP0	QUANT	2.80000E+002	Time &1 (s)
VSTEP1	POTEN	2.00000E-001	F	Step &2 (V)
TSTEP1	QUANT	2.80000E+002	Time &2 (s)
VSTEP2	POTEN	4.00000E-001	F	Step &3 (V)
TSTEP2	QUANT	2.80000E+002	Time &3 (s)
VSTEP3	POTEN	6.00000E-001	F	Step &4 (V)
TSTEP3	QUANT	2.80000E+002	Time &4 (s)
VSTEP4	POTEN	8.00000E-001	F	Step &5 (V)
TSTEP4	QUANT	2.80000E+002	Time &5 (s)
VSTEP5	POTEN	1.00000E+000	F	Step &6 (V)
TSTEP5	QUANT	2.80000E+002	Time &6 (s)
SAMPLETIME	QUANT	2.00000E-001	Sa&mple Period (s)
CONDIT	TWOPARAM	T	3.00000E+001	0.00000E+000	Conditionin&g	Time(s)	E(V)
DELAY	TWOPARAM	F	3.00000E+002	1.00000E-001	Init. De&lay	Time(s)	Stab.(mV/s)
EQDELAY	QUANT	0.00000E+000	Equil. &Time (s)
ILIMIT	QUANT	1.00000E+001	Limit &I (mA/cm^2)
IRANGE	QUANT	5.00000E+003	&Max Current (mA)
IRCOMP	SELECTOR	0	IRCom&p
PFCOR	QUANT	5.00000E+001	PF Corr. (ohm)
EOC	QUANT	0	Open Circuit (V)
PSTATMODEL	IQUANT	53	Pstat Model
PSTATSECTION	LABEL	IFC5000-19505	Pstat Section
PSTATSERIALNO	LABEL	19505	Pstat Serial Number
CTRLMODE	IQUANT	1	Control Mode
ELECTROMETER	IQUANT	0	RE=0 or CS=1
IESTAB	IQUANT	2	I/E Stability
CASPEED	IQUANT	4	Control Amp Speed
CONVENTION	IQUANT	1	Current Convention
ICHRANGE	IQUANT	2	Ich Range
ICHRANGEMODE	TOGGLE	F	Ich Auto Range
ICHOFFSETENABLE	TOGGLE	F	Ich Offset Enable
ICHOFFSET	QUANT	0	Ich Offset (V)
ICHFILTER	IQUANT	3	Ich Filter
VCHRANGE	IQUANT	2	Vch Range
VCHRANGEMODE	TOGGLE	F	Vch Auto Range
VCHOFFSETENABLE	TOGGLE	F	Vch Offset Enable
VCHOFFSET	QUANT	0	Vch Offset (V)
VCHFILTER	IQUANT	3	Vch Filter
IERANGELOWERLIMIT	IQUANT	7	I/E Range Lower Limit
IERANGEMODE	TOGGLE	T	I/E AutoRange
IERANGE	IQUANT	12	I/E Range
ACHSELECT	IQUANT	4	Ach Select
ACHRANGE	IQUANT	2	Ach Range
ACHOFFSETENABLE	TOGGLE	F	Ach Offset Enable
ACHOFFSET	QUANT	0	Ach Offset (V)
ACHFILTER	IQUANT	1	Ach Filter
SENSECABLEID	IQUANT	14	Sense Cable ID
PWRCABLEID	IQUANT	7	Power Cable ID
DCCALDATE	LABEL	8/4/2025	DC Calibration Date
ACCALDATE	LABEL	3/7/2024	AC Calibration Date
FRAMEWORKVERSION	LABEL	7.10.3	Framework Version
INSTRUMENTVERSION	LABEL	4.91	Instrument Version
COMMVERSION	LABEL	3.10	Communications Version
CPUPLDVERSION	LABEL	5.50	CPU PLD Version
CTRLPLDVERSION	LABEL	0.00	CTRL PLD Version
PSTATPLDVERSION	LABEL	0.00	PSTAT PLD Version
Curve	TABLE	7493
	Pt	T	Vf	Im	Vu	Sig	Ach	IERange	Over	Temp
	#	s	V vs. Ref.	A	V	V	V	#	bits	deg C
	0	0.2	-5.42297E-004	-8.63387E-004	0.00000E+000	0.00000E+000	-4.98494E-004	12	...........	1573.18
	75	15.2	-5.53634E-004	1.04658E-008	0.00000E+000	0.00000E+000	-5.04079E-004	7	...........	1572.60
	150	30.2	-5.90563E-004	-6.47500E-008	0.00000E+000	0.00000E+000	-5.11416E-004	7	...........	1572.60
	225	45.2	-5.55385E-004	1.81395E-008	0.00000E+000	0.00000E+000	-5.08248E-004	7	...........	1572.60
	300	60.2	-5.30127E-004	1.60002E-008	0.00000E+000	0.00000E+000	-4.73816E-004	7	...........	1572.60
	375	75.2	-5.59136E-004	-4.54846E-008	0.00000E+000	0.00000E+000	-4.86822E-004	7	...........	1572.60
	450	90.2	-5.71307E-004	2.45555E-008	0.00000E+000	0.00000E+000	-4.85155E-004	7	...........	1572.60
	525	105.2	-5.02284E-004	-3.44950E-008	0.00000E+000	0.00000E+000	-5.06164E-004	7	...........	1572.60
	600	120.2	-5.63721E-004	-3.31024E-008	0.00000E+000	0.00000E+000	-4.84654E-004	7	...........	1572.60
	675	135.2	-5.34128E-004	2.86619E-008	0.00000E+000	0.00000E+000	-5.04496E-004	7	...........	1572.60
	750	150.2	-5.25458E-004	-2.68866E-008	0.00000E+000	0.00000E+000	-4.80402E-004	7	...........	1572.60
	825	165.2	-5.52801E-004	3.24525E-008	0.00000E+000	0.00000E+000	-5.16501E-004	7	...........	1572.60
	900	180.2	-5.29960E-004	3.00649E-008	0.00000E+000	0.00000E+000	-4.97910E-004	7	...........	1572.60
	975	195.2	-5.19957E-004	-2.03962E-008	0.00000E+000	0.00000E+000	-5.12083E-004	7	...........	1572.60
	1050	210.2	-5.12788E-004	3.25540E-008	0.00000E+000	0.00000E+000	-5.21087E-004	7	...........	1572.60
	1125	225.2	-5.37629E-004	-1.56106E-008	0.00000E+000	0.00000E+000	-4.88906E-004	7	...........	1572.60
	1200	240.2	-5.25709E-004	-1.56864E-008	0.00000E+000	0.00000E+000	-4.85488E-004	7	...........	1572.60
	1275	255.2	-5.23875E-004	3.32827E-008	0.00000E+000	0.00000E+000	-4.83237E-004	7	...........	1572.60
	1350	270.2	-5.48633E-004	-1.26807E-008	0.00000E+000	0.00000E+000	-5.18502E-004	7	...........	1572.60
	1425	285.2	1.99404E-001	3.11902E-007	0.00000E+000	2.00014E-001	-4.94492E-004	7	...........	1572.60
	1500	300.2	1.99411E-001	1.79624E-007	0.00000E+000	2.00014E-001	-5.07331E-004	7	...........	1572.60
	1575	315.2	1.99398E-001	4.94207E-008	0.00000E+000	2.00014E-001	-5.18419E-004	7	...........	1572.60
	1650	330.2	1.99375E-001	1.36382E-007	0.00000E+000	2.00014E-001	-5.08998E-004	7	...........	1572.60
	1725	345.2	1.99421E-001	3.33605E-008	0.00000E+000	2.00014E-001	-5.02329E-004	7	...........	1572.60
	1800	360.2	1.99428E-001	2.69271E-008	0.00000E+000	2.00014E-001	-5.03412E-004	7	...........	1572.60
	1875	375.2	1.99422E-001	1.14829E-007	0.00000E+000	2.00014E-001	-5.40595E-004	7	...........	1572.60
	1950	390.2	1.99361E-001	2.28000E-008	0.00000E+000	2.00014E-001	-5.01495E-004	7	...........	1572.60
	2025	405.2	1.99431E-001	1.09544E-007	0.00000E+000	2.00014E-001	-5.11499E-004	7	...........	1572.60
	2100	420.2	1.99375E-001	1.04881E-007	0.00000E+000	2.00014E-001	-5.24755E-004	7	...........	1572.60
	2175	435.2	1.99396E-001	1.81513E-008	0.00000E+000	2.00014E-001	-4.94075E-004	7	...........	1572.60
	2250	450.2	1.99401E-001	1.01034E-007	0.00000E+000	2.00014E-001	-5.16418E-004	7	...........	1572.60
	2325	465.2	1.99386E-001	1.90969E-008	0.00000E+000	2.00014E-001	-4.91491E-004	7	...........	1572.60
	2400	480.2	1.99438E-001	1.61649E-008	0.00000E+000	2.00014E-001	-5.32258E-004	7	...........	1572.60
	2475	495.2	1.99426E-001	9.64590E-008	0.00000E+000	2.00014E-001	-5.00161E-004	7	...........	1572.60
	2550	510.2	1.99434E-001	1.65661E-008	0.00000E+000	2.00014E-001	-5.04830E-004	7	...........	1572.60
	2625	525.2	1.99449E-001	9.43085E-008	0.00000E+000	2.00014E-001	-4.91657E-004	7	...........	1572.60
	2700	540.2	1.99427E-001	9.18848E-008	0.00000E+000	2.00014E-001	-4.86155E-004	7	...........	1572.60
	2775	555.2	1.99415E-001	1.40735E-008	0.00000E+000	2.00014E-001	-4.93075E-004	7	...........	1572.60
	2850	570.2	3.99273E-001	3.53243E-007	0.00000E+000	3.99977E-001	-4.90740E-004	7	...........	1572.60
	2925	585.2	3.99300E-001	1.23491E-007	0.00000E+000	3.99977E-001	-4.91324E-004	7	...........	1572.60
	3000	600.2	3.99300E-001	9.63415E-008	0.00000E+000	3.99977E-001	-5.17585E-004	7	...........	1572.60
	3075	615.2	3.99275E-001	2.33955E-007	0.00000E+000	3.99977E-001	-5.02329E-004	7	...........	1572.60
	3150	630.2	3.99270E-001	7.90966E-008	0.00000E+000	3.99977E-001	-5.07664E-004	7	...........	1572.60
	3225	645.2	3.99281E-001	2.18406E-007	0.00000E+000	3.99977E-001	-4.84571E-004	7	...........	1572.60
	3300	660.2	3.99292E-001	2.07870E-007	0.00000E+000	3.99977E-001	-5.01161E-004	7	...........	1572.60
	3375	675.2	3.99268E-001	5.37808E-008	0.00000E+000	3.99977E-001	-4.95742E-004	7	...........	1572.60
[...]
	4875	975.2	5.99232E-001	3.30082E-007	0.00000E+000	5.99991E-001	-5.48932E-004	7	...........	1572.60
	4950	990.2	5.99229E-001	1.05470E-007	0.00000E+000	5.99991E-001	-5.16668E-004	7	...........	1572.70
	5025	1005.2	5.99233E-001	3.17755E-007	0.00000E+000	5.99991E-001	-5.24172E-004	7	...........	1572.60
	5100	1020.2	5.99215E-001	3.04850E-007	0.00000E+000	5.99991E-001	-5.17335E-004	7	...........	1572.60
	5175	1035.2	5.99244E-001	9.16074E-008	0.00000E+000	5.99991E-001	-5.19336E-004	7	...........	1572.60
	5250	1050.2	5.99266E-001	2.99791E-007	0.00000E+000	5.99991E-001	-5.09665E-004	7	...........	1572.60
	5325	1065.2	5.99230E-001	9.40603E-008	0.00000E+000	5.99991E-001	-4.90490E-004	7	...........	1572.70
	5400	1080.2	5.99243E-001	8.02653E-008	0.00000E+000	5.99991E-001	-5.00244E-004	7	...........	1572.70
	5475	1095.2	5.99231E-001	2.82981E-007	0.00000E+000	5.99991E-001	-4.96493E-004	7	...........	1572.70
	5550	1110.2	5.99219E-001	7.96834E-008	0.00000E+000	5.99991E-001	-4.83404E-004	7	...........	1572.60
	5625	1125.2	7.99221E-001	1.12880E-006	0.00000E+000	8.00004E-001	-4.93075E-004	7	...........	1572.60
	5700	1140.2	7.99195E-001	8.46956E-007	0.00000E+000	8.00004E-001	-5.28507E-004	7	...........	1572.60
	5775	1155.2	7.99232E-001	3.89580E-007	0.00000E+000	8.00004E-001	-5.05330E-004	7	...........	1572.60
	5850	1170.2	7.99213E-001	7.04105E-007	0.00000E+000	8.00004E-001	-5.12000E-004	7	...........	1572.60
	5925	1185.2	7.99215E-001	3.31871E-007	0.00000E+000	8.00004E-001	-5.17419E-004	7	...........	1572.60
	6000	1200.2	7.99200E-001	2.85914E-007	0.00000E+000	8.00004E-001	-5.13917E-004	7	...........	1572.60
	6075	1215.2	7.99187E-001	6.29738E-007	0.00000E+000	8.00004E-001	-5.19586E-004	7	...........	1572.60
	6150	1230.2	7.99201E-001	2.70591E-007	0.00000E+000	8.00004E-001	-4.72816E-004	7	...........	1572.60
	6225	1245.2	7.99207E-001	6.02615E-007	0.00000E+000	8.00004E-001	-5.10332E-004	7	...........	1572.60
	6300	1260.2	7.99184E-001	5.75583E-007	0.00000E+000	8.00004E-001	-5.22588E-004	7	...........	1572.60
	6375	1275.2	7.99190E-001	2.31424E-007	0.00000E+000	8.00004E-001	-5.25339E-004	7	...........	1572.60
	6450	1290.2	7.99204E-001	5.60057E-007	0.00000E+000	8.00004E-001	-5.19253E-004	7	...........	1572.60
	6525	1305.2	7.99193E-001	2.46985E-007	0.00000E+000	8.00004E-001	-4.91324E-004	7	...........	1572.70
	6600	1320.2	7.99167E-001	2.18356E-007	0.00000E+000	8.00004E-001	-5.07748E-004	7	...........	1572.70
	6675	1335.2	7.99214E-001	5.36854E-007	0.00000E+000	8.00004E-001	-5.07748E-004	7	...........	1572.60
	6750	1350.2	7.99208E-001	2.13561E-007	0.00000E+000	8.00004E-001	-5.20670E-004	7	...........	1572.70
	6825	1365.2	7.99180E-001	5.30498E-007	0.00000E+000	8.00004E-001	-4.81403E-004	7	...........	1572.60
	6900	1380.2	7.99215E-001	5.16043E-007	0.00000E+000	8.00004E-001	-5.20920E-004	7	...........	1572.70
	6975	1395.2	7.99183E-001	1.98049E-007	0.00000E+000	8.00004E-001	-5.14501E-004	7	...........	1572.70
	7050	1410.2	9.99184E-001	1.60109E-006	0.00000E+000	1.00002E+000	-5.01161E-004	7	...........	1572.60
	7125	1425.2	9.99176E-001	8.55567E-007	0.00000E+000	1.00002E+000	-5.13417E-004	7	...........	1572.70
	7200	1440.2	9.99164E-001	7.25355E-007	0.00000E+000	1.00002E+000	-4.97660E-004	7	...........	1572.70
	7275	1455.2	9.99139E-001	1.23851E-006	0.00000E+000	1.00002E+000	-5.08248E-004	7	...........	1572.70
	7350	1470.2	9.99152E-001	6.58592E-007	0.00000E+000	1.00002E+000	-4.97993E-004	7	...........	1572.70
	7425	1485.2	9.99157E-001	5.95362E-007	0.00000E+000	1.00002E+000	-5.04246E-004	7	...........	1572.70
	7492	1498.6	9.99138E-001	5.63875E-007	0.00000E+000	1.00002E+000	-4.87739E-004	7	...........	1572.70

File: Photocurrent-MD.DTA
EXPLAIN
TAG	MULTI_STEP_CHRONOA
TITLE	LABEL	Chronoamperometry Scan	Test &Identifier
DATE	LABEL	5/8/2025	Date
TIME	LABEL	11:25:35	Time
PSTAT	PSTAT	IFC5000-19505	Potentiostat
NOTES	NOTES	1	&Notes...

AREA	QUANT	5.00000E-001	Sample &Area (cm^2)
ELECTRODETYPE	SELECTOR	0	Electrode Type
STRIPPING	TOGGLE	F	Used for Stripping
VSTEP0	POTEN	0.00000E+000	F	Step &1 (V)
TSTEP0	QUANT	2.80000E+002	Time &1 (s)
VSTEP1	POTEN	2.00000E-001	F	Step &2 (V)
TSTEP1	QUANT	2.80000E+002	Time &2 (s)
VSTEP2	POTEN	4.00000E-001	F	Step &3 (V)
TSTEP2	QUANT	2.80000E+002	Time &3 (s)
VSTEP3	POTEN	6.00000E-001	F	Step &4 (V)
TSTEP3	QUANT	2.80000E+002	Time &4 (s)
VSTEP4	POTEN	8.00000E-001	F	Step &5 (V)
TSTEP4	QUANT	2.80000E+002	Time &5 (s)
VSTEP5	POTEN	1.00000E+000	F	Step &6 (V)
TSTEP5	QUANT	2.80000E+002	Time &6 (s)
SAMPLETIME	QUANT	2.00000E-001	Sa&mple Period (s)
CONDIT	TWOPARAM	T	3.00000E+001	0.00000E+000	Conditionin&g	Time(s)	E(V)
DELAY	TWOPARAM	F	3.00000E+002	1.00000E-001	Init. De&lay	Time(s)	Stab.(mV/s)
EQDELAY	QUANT	0.00000E+000	Equil. &Time (s)
ILIMIT	QUANT	1.00000E+001	Limit &I (mA/cm^2)
IRANGE	QUANT	5.00000E+003	&Max Current (mA)
IRCOMP	SELECTOR	0	IRCom&p
PFCOR	QUANT	5.00000E+001	PF Corr. (ohm)
EOC	QUANT	0	Open Circuit (V)
PSTATMODEL	IQUANT	53	Pstat Model
PSTATSECTION	LABEL	IFC5000-19505	Pstat Section
PSTATSERIALNO	LABEL	19505	Pstat Serial Number
CTRLMODE	IQUANT	1	Control Mode
ELECTROMETER	IQUANT	0	RE=0 or CS=1
IESTAB	IQUANT	2	I/E Stability
CASPEED	IQUANT	4	Control Amp Speed
CONVENTION	IQUANT	1	Current Convention
ICHRANGE	IQUANT	2	Ich Range
ICHRANGEMODE	TOGGLE	F	Ich Auto Range
ICHOFFSETENABLE	TOGGLE	F	Ich Offset Enable
ICHOFFSET	QUANT	0	Ich Offset (V)
ICHFILTER	IQUANT	3	Ich Filter
VCHRANGE	IQUANT	2	Vch Range
VCHRANGEMODE	TOGGLE	F	Vch Auto Range
VCHOFFSETENABLE	TOGGLE	F	Vch Offset Enable
VCHOFFSET	QUANT	0	Vch Offset (V)
VCHFILTER	IQUANT	3	Vch Filter
IERANGELOWERLIMIT	IQUANT	7	I/E Range Lower Limit
IERANGEMODE	TOGGLE	T	I/E AutoRange
IERANGE	IQUANT	12	I/E Range
ACHSELECT	IQUANT	4	Ach Select
ACHRANGE	IQUANT	2	Ach Range
ACHOFFSETENABLE	TOGGLE	F	Ach Offset Enable
ACHOFFSET	QUANT	0	Ach Offset (V)
ACHFILTER	IQUANT	1	Ach Filter
SENSECABLEID	IQUANT	14	Sense Cable ID
PWRCABLEID	IQUANT	7	Power Cable ID
DCCALDATE	LABEL	8/4/2025	DC Calibration Date
ACCALDATE	LABEL	3/7/2024	AC Calibration Date
FRAMEWORKVERSION	LABEL	7.10.3	Framework Version
INSTRUMENTVERSION	LABEL	4.91	Instrument Version
COMMVERSION	LABEL	3.10	Communications Version
CPUPLDVERSION	LABEL	5.50	CPU PLD Version
CTRLPLDVERSION	LABEL	0.00	CTRL PLD Version
PSTATPLDVERSION	LABEL	0.00	PSTAT PLD Version
Curve	TABLE	8400
	Pt	T	Vf	Im	Vu	Sig	Ach	IERange	Over	Temp
	#	s	V vs. Ref.	A	V	V	V	#	bits	deg C
	0	0.2	-4.70858E-004	-7.63480E-004	0.00000E+000	0.00000E+000	-4.43887E-004	12	...........	1572.89
	84	17	-4.99700E-004	9.19293E-008	0.00000E+000	0.00000E+000	-4.68230E-004	7	...........	1572.41
	168	33.8	-4.77026E-004	1.82925E-008	0.00000E+000	0.00000E+000	-4.59727E-004	7	...........	1572.41
	252	50.6	-4.66440E-004	2.01411E-007	0.00000E+000	0.00000E+000	-4.62811E-004	7	...........	1572.41
	336	67.4	-4.82778E-004	3.10891E-008	0.00000E+000	0.00000E+000	-4.83654E-004	7	...........	1572.41
	420	84.2	-4.87280E-004	7.78019E-008	0.00000E+000	0.00000E+000	-4.75234E-004	7	...........	1572.41
	504	101	-4.67273E-004	7.32472E-008	0.00000E+000	0.00000E+000	-4.89240E-004	7	...........	1572.41
	588	117.8	-4.96282E-004	1.75868E-008	0.00000E+000	0.00000E+000	-4.66563E-004	7	...........	1572.41
	672	134.6	-4.91698E-004	6.88280E-008	0.00000E+000	0.00000E+000	-4.85988E-004	7	...........	1572.41
	756	151.4	-4.57520E-004	1.70111E-008	0.00000E+000	0.00000E+000	-4.70231E-004	7	...........	1572.41
	840	168.2	-5.32461E-004	6.64258E-008	0.00000E+000	0.00000E+000	-4.66396E-004	7	...........	1572.41
	924	185	-5.11621E-004	1.56122E-008	0.00000E+000	0.00000E+000	-4.76734E-004	7	...........	1572.41
	1008	201.8	-5.07036E-004	6.27054E-008	0.00000E+000	0.00000E+000	-4.71482E-004	7	...........	1572.41
	1092	218.6	-5.18873E-004	6.16451E-008	0.00000E+000	0.00000E+000	-4.68397E-004	7	...........	1572.41
	1176	235.4	-4.93448E-004	1.34617E-008	0.00000E+000	0.00000E+000	-4.59727E-004	7	...........	1572.41
	1260	252.2	-5.11371E-004	5.96573E-008	0.00000E+000	0.00000E+000	-4.83904E-004	7	...........	1572.41
	1344	269	-4.86029E-004	1.50880E-008	0.00000E+000	0.00000E+000	-4.64229E-004	7	...........	1572.41
	1428	285.8	1.99439E-001	2.81349E-007	0.00000E+000	2.00014E-001	-4.47221E-004	7	...........	1572.41
	1512	302.6	1.99468E-001	7.18636E-008	0.00000E+000	2.00014E-001	-4.68731E-004	7	...........	1572.41
	1596	319.4	1.99456E-001	4.56961E-008	0.00000E+000	2.00014E-001	-4.90073E-004	7	...........	1572.41
	1680	336.2	1.99451E-001	1.30637E-007	0.00000E+000	2.00014E-001	-4.64979E-004	7	...........	1572.41
	1764	353	1.99462E-001	3.51231E-008	0.00000E+000	2.00014E-001	-4.56142E-004	7	...........	1572.41
	1848	369.8	1.99429E-001	1.18924E-007	0.00000E+000	2.00014E-001	-4.67730E-004	7	...........	1572.41
	1932	386.6	1.99456E-001	3.31012E-008	0.00000E+000	2.00014E-001	-4.94409E-004	7	...........	1572.41
	2016	403.4	1.99465E-001	1.12103E-007	0.00000E+000	2.00014E-001	-4.77735E-004	7	...........	1572.41
	2100	420.2	1.99432E-001	1.09162E-007	0.00000E+000	2.00014E-001	-4.76984E-004	7	...........	1572.41
	2184	437	1.99449E-001	2.51848E-008	0.00000E+000	2.00014E-001	-4.61894E-004	7	...........	1572.41
	2268	453.8	1.99420E-001	1.02892E-007	0.00000E+000	2.00014E-001	-4.56976E-004	7	...........	1572.41
	2352	470.6	1.99458E-001	2.41968E-008	0.00000E+000	2.00014E-001	-4.78402E-004	7	...........	1572.41
	2436	487.4	1.99459E-001	9.87785E-008	0.00000E+000	2.00014E-001	-4.70898E-004	7	...........	1572.41
	2520	504.2	1.99453E-001	2.60768E-008	0.00000E+000	2.00014E-001	-4.68230E-004	7	...........	1572.41
	2604	521	1.99457E-001	2.04937E-008	0.00000E+000	2.00014E-001	-4.62978E-004	7	...........	1572.41
	2688	537.8	1.99449E-001	9.45797E-008	0.00000E+000	2.00014E-001	-4.83987E-004	7	...........	1572.41
	2772	554.6	1.99430E-001	2.28146E-008	0.00000E+000	2.00014E-001	-4.53057E-004	7	...........	1572.41
	2856	571.4	3.99330E-001	3.68600E-007	0.00000E+000	3.99977E-001	-4.57059E-004	7	...........	1572.51
	2940	588.2	3.99331E-001	1.32745E-007	0.00000E+000	3.99977E-001	-4.51473E-004	7	...........	1572.41
	3024	605	3.99343E-001	2.36870E-007	0.00000E+000	3.99977E-001	-4.74650E-004	7	...........	1572.41
	3108	621.8	3.99326E-001	2.12883E-007	0.00000E+000	3.99977E-001	-4.79902E-004	7	...........	1572.51
	3192	638.6	3.99349E-001	6.49783E-008	0.00000E+000	3.99977E-001	-4.62811E-004	7	...........	1572.41
	3276	655.4	3.99329E-001	1.94003E-007	0.00000E+000	3.99977E-001	-4.70315E-004	7	...........	1572.51
	3360	672.2	3.99329E-001	5.80957E-008	0.00000E+000	3.99977E-001	-4.53141E-004	7	...........	1572.41
	3444	689	3.99315E-001	1.84382E-007	0.00000E+000	3.99977E-001	-4.62645E-004	7	...........	1572.41
	3528	705.8	3.99334E-001	5.85018E-008	0.00000E+000	3.99977E-001	-4.60060E-004	7	...........	1572.51
	3612	722.6	3.99341E-001	4.71882E-008	0.00000E+000	3.99977E-001	-4.56892E-004	7	...........	1572.41
	3696	739.4	3.99322E-001	1.68468E-007	0.00000E+000	3.99977E-001	-4.67480E-004	7	...........	1572.51
	3780	756.2	3.99336E-001	4.57351E-008	0.00000E+000	3.99977E-001	-4.80069E-004	7	...........	1572.41
	3864	773	3.99349E-001	1.62425E-007	0.00000E+000	3.99977E-001	-4.74066E-004	7	...........	1572.51
[...]
	5460	1092.2	5.99233E-001	3.02066E-007	0.00000E+000	5.99991E-001	-5.03579E-004	7	...........	1572.51
	5544	1109	5.99272E-001	1.19681E-007	0.00000E+000	5.99991E-001	-4.65146E-004	7	...........	1572.51
	5628	1125.8	7.99241E-001	1.62664E-006	0.00000E+000	8.00004E-001	-4.74983E-004	7	...........	1572.51
	5712	1142.6	7.99211E-001	1.22147E-006	0.00000E+000	8.00004E-001	-4.66230E-004	7	...........	1572.51
	5796	1159.4	7.99230E-001	7.45446E-007	0.00000E+000	8.00004E-001	-4.74817E-004	7	...........	1572.51
	5880	1176.2	7.99230E-001	9.94298E-007	0.00000E+000	8.00004E-001	-4.75984E-004	7	...........	1572.51
	5964	1193	7.99241E-001	6.29328E-007	0.00000E+000	8.00004E-001	-4.62978E-004	7	...........	1572.51
	6048	1209.8	7.99237E-001	8.82302E-007	0.00000E+000	8.00004E-001	-4.83654E-004	7	...........	1572.51
	6132	1226.6	7.99244E-001	5.98098E-007	0.00000E+000	8.00004E-001	-4.68564E-004	7	...........	1572.51
	6216	1243.4	7.99252E-001	5.11084E-007	0.00000E+000	8.00004E-001	-4.59894E-004	7	...........	1572.51
	6300	1260.2	7.99214E-001	7.80607E-007	0.00000E+000	8.00004E-001	-5.16668E-004	7	...........	1572.51
	6384	1277	7.99237E-001	4.60401E-007	0.00000E+000	8.00004E-001	-4.73233E-004	7	...........	1572.51
	6468	1293.8	7.99225E-001	7.27702E-007	0.00000E+000	8.00004E-001	-4.69731E-004	7	...........	1572.51
	6552	1310.6	7.99254E-001	4.14648E-007	0.00000E+000	8.00004E-001	-4.49306E-004	7	...........	1572.51
	6636	1327.4	7.99249E-001	6.71648E-007	0.00000E+000	8.00004E-001	-4.73316E-004	7	...........	1572.51
	6720	1344.2	7.99248E-001	6.45170E-007	0.00000E+000	8.00004E-001	-4.77151E-004	7	...........	1572.51
	6804	1361	7.99224E-001	3.70193E-007	0.00000E+000	8.00004E-001	-4.75150E-004	7	...........	1572.51
	6888	1377.8	7.99221E-001	6.37696E-007	0.00000E+000	8.00004E-001	-4.94992E-004	7	...........	1572.51
	6972	1394.6	7.99215E-001	3.57009E-007	0.00000E+000	8.00004E-001	-4.66480E-004	7	...........	1572.51
	7056	1411.4	9.99209E-001	2.16768E-006	0.00000E+000	1.00002E+000	-4.61561E-004	7	...........	1572.51
	7140	1428.2	9.99211E-001	1.44205E-006	0.00000E+000	1.00002E+000	-4.70148E-004	7	...........	1572.51
	7224	1445	9.99178E-001	1.71880E-006	0.00000E+000	1.00002E+000	-4.72649E-004	7	...........	1572.51
	7308	1461.8	9.99197E-001	1.66776E-006	0.00000E+000	1.00002E+000	-4.73149E-004	7	...........	1572.51
	7392	1478.6	9.99151E-001	1.09267E-006	0.00000E+000	1.00002E+000	-4.95576E-004	7	...........	1572.51
	7476	1495.4	9.99197E-001	1.48074E-006	0.00000E+000	1.00002E+000	-4.66563E-004	7	...........	1572.51
	7560	1512.2	9.99197E-001	9.87278E-007	0.00000E+000	1.00002E+000	-4.78985E-004	7	...........	1572.51
	7644	1529	9.99227E-001	1.35425E-006	0.00000E+000	1.00002E+000	-4.78568E-004	7	...........	1572.51
	7728	1545.8	9.99158E-001	9.52908E-007	0.00000E+000	1.00002E+000	-4.62561E-004	7	...........	1572.51
	7812	1562.6	9.99216E-001	8.52971E-007	0.00000E+000	1.00002E+000	-4.56059E-004	7	...........	1572.51
	7896	1579.4	9.99172E-001	1.25440E-006	0.00000E+000	1.00002E+000	-4.75984E-004	7	...........	1572.51
	7980	1596.2	9.99192E-001	8.07328E-007	0.00000E+000	1.00002E+000	-4.89156E-004	7	...........	1572.51
	8064	1613	9.99206E-001	1.18179E-006	0.00000E+000	1.00002E+000	-4.81320E-004	7	...........	1572.51
	8148	1629.8	9.99160E-001	7.84415E-007	0.00000E+000	1.00002E+000	-4.70065E-004	7	...........	1572.51
	8232	1646.6	9.99202E-001	1.11771E-006	0.00000E+000	1.00002E+000	-4.64479E-004	7	...........	1572.51
	8316	1663.4	9.99228E-001	1.11953E-006	0.00000E+000	1.00002E+000	-4.79402E-004	7	...........	1572.51
	8399	1680	9.99175E-001	6.72322E-007	0.00000E+000	1.00002E+000	-4.75317E-004	7	...........	1572.51