Folder: Py_elchem/data/photocurrent (part 3)

File: Photocurrent-ME.DTA
EXPLAIN
TAG	MULTI_STEP_CHRONOA
TITLE	LABEL	Chronoamperometry Scan	Test &Identifier
DATE	LABEL	4/8/2025	Date
TIME	LABEL	11:06:21	Time
PSTAT	PSTAT	IFC5000-19505	Potentiostat
NOTES	NOTES	1	&Notes...

AREA	QUANT	5.00000E-001	Sample &Area (cm^2)
ELECTRODETYPE	SELECTOR	0	Electrode Type
STRIPPING	TOGGLE	F	Used for Stripping
VSTEP0	POTEN	0.00000E+000	F	Step &1 (V)
TSTEP0	QUANT	2.80000E+002	Time &1 (s)
VSTEP1	POTEN	2.00000E-001	F	Step &2 (V)
TSTEP1	QUANT	2.80000E+002	Time &2 (s)
VSTEP2	POTEN	4.00000E-001	F	Step &3 (V)
TSTEP2	QUANT	2.80000E+002	Time &3 (s)
VSTEP3	POTEN	6.00000E-001	F	Step &4 (V)
TSTEP3	QUANT	2.80000E+002	Time &4 (s)
VSTEP4	POTEN	8.00000E-001	F	Step &5 (V)
TSTEP4	QUANT	2.80000E+002	Time &5 (s)
VSTEP5	POTEN	1.00000E+000	F	Step &6 (V)
TSTEP5	QUANT	2.80000E+002	Time &6 (s)
SAMPLETIME	QUANT	2.00000E-001	Sa&mple Period (s)
CONDIT	TWOPARAM	T	3.00000E+001	0.00000E+000	Conditionin&g	Time(s)	E(V)
DELAY	TWOPARAM	F	3.00000E+002	1.00000E-001	Init. De&lay	Time(s)	Stab.(mV/s)
EQDELAY	QUANT	0.00000E+000	Equil. &Time (s)
ILIMIT	QUANT	1.00000E+001	Limit &I (mA/cm^2)
IRANGE	QUANT	5.00000E+003	&Max Current (mA)
IRCOMP	SELECTOR	0	IRCom&p
PFCOR	QUANT	5.00000E+001	PF Corr. (ohm)
EOC	QUANT	0	Open Circuit (V)
PSTATMODEL	IQUANT	53	Pstat Model
PSTATSECTION	LABEL	IFC5000-19505	Pstat Section
PSTATSERIALNO	LABEL	19505	Pstat Serial Number
CTRLMODE	IQUANT	1	Control Mode
ELECTROMETER	IQUANT	0	RE=0 or CS=1
IESTAB	IQUANT	2	I/E Stability
CASPEED	IQUANT	4	Control Amp Speed
CONVENTION	IQUANT	1	Current Convention
ICHRANGE	IQUANT	2	Ich Range
ICHRANGEMODE	TOGGLE	F	Ich Auto Range
ICHOFFSETENABLE	TOGGLE	F	Ich Offset Enable
ICHOFFSET	QUANT	0	Ich Offset (V)
ICHFILTER	IQUANT	3	Ich Filter
VCHRANGE	IQUANT	2	Vch Range
VCHRANGEMODE	TOGGLE	F	Vch Auto Range
VCHOFFSETENABLE	TOGGLE	F	Vch Offset Enable
VCHOFFSET	QUANT	0	Vch Offset (V)
VCHFILTER	IQUANT	3	Vch Filter
IERANGELOWERLIMIT	IQUANT	7	I/E Range Lower Limit
IERANGEMODE	TOGGLE	T	I/E AutoRange
IERANGE	IQUANT	12	I/E Range
ACHSELECT	IQUANT	4	Ach Select
ACHRANGE	IQUANT	2	Ach Range
ACHOFFSETENABLE	TOGGLE	F	Ach Offset Enable
ACHOFFSET	QUANT	0	Ach Offset (V)
ACHFILTER	IQUANT	4	Ach Filter
SENSECABLEID	IQUANT	14	Sense Cable ID
PWRCABLEID	IQUANT	7	Power Cable ID
DCCALDATE	LABEL	8/4/2025	DC Calibration Date
ACCALDATE	LABEL	3/7/2024	AC Calibration Date
FRAMEWORKVERSION	LABEL	7.10.3	Framework Version
INSTRUMENTVERSION	LABEL	4.91	Instrument Version
COMMVERSION	LABEL	3.10	Communications Version
CPUPLDVERSION	LABEL	5.50	CPU PLD Version
CTRLPLDVERSION	LABEL	0.00	CTRL PLD Version
PSTATPLDVERSION	LABEL	0.00	PSTAT PLD Version
Curve	TABLE	8400
	Pt	T	Vf	Im	Vu	Sig	Ach	IERange	Over	Temp
	#	s	V vs. Ref.	A	V	V	V	#	bits	deg C
	0	0.2	-5.78892E-004	-8.37439E-004	0.00000E+000	0.00000E+000	-3.49256E-004	12	...........	1572.98
	84	17	-5.74641E-004	4.29561E-008	0.00000E+000	0.00000E+000	-3.51257E-004	7	...........	1572.51
	168	33.8	-5.78142E-004	5.55362E-009	0.00000E+000	0.00000E+000	-3.65348E-004	7	...........	1572.60
	252	50.6	-5.78892E-004	4.06359E-008	0.00000E+000	0.00000E+000	-3.54259E-004	7	...........	1572.51
	336	67.4	-5.94481E-004	6.67024E-009	0.00000E+000	0.00000E+000	-3.51757E-004	7	...........	1572.51
	420	84.2	-5.77892E-004	3.82525E-008	0.00000E+000	0.00000E+000	-3.52508E-004	7	...........	1572.51
	504	101	-5.88062E-004	3.58149E-008	0.00000E+000	0.00000E+000	-3.54008E-004	7	...........	1572.51
	588	117.8	-5.61053E-004	6.75645E-009	0.00000E+000	0.00000E+000	-3.47922E-004	7	...........	1572.60
	672	134.6	-5.48716E-004	3.57460E-008	0.00000E+000	0.00000E+000	-3.64097E-004	7	...........	1572.51
	756	151.4	-5.52551E-004	7.20421E-009	0.00000E+000	0.00000E+000	-3.51507E-004	7	...........	1572.51
	840	168.2	-6.08985E-004	3.50827E-008	0.00000E+000	0.00000E+000	-3.51424E-004	7	...........	1572.60
	924	185	-5.96231E-004	9.65854E-009	0.00000E+000	0.00000E+000	-3.37750E-004	7	...........	1572.51
	1008	201.8	-5.79976E-004	6.62574E-009	0.00000E+000	0.00000E+000	-3.44670E-004	7	...........	1572.51
	1092	218.6	-5.61387E-004	3.40829E-008	0.00000E+000	0.00000E+000	-3.56260E-004	7	...........	1572.51
	1176	235.4	-5.70223E-004	8.64830E-009	0.00000E+000	0.00000E+000	-3.65598E-004	7	...........	1572.51
	1260	252.2	-5.71640E-004	3.36080E-008	0.00000E+000	0.00000E+000	-3.56593E-004	7	...........	1572.60
	1344	269	-5.48383E-004	8.50368E-009	0.00000E+000	0.00000E+000	-3.45921E-004	7	...........	1572.51
	1428	285.8	1.99392E-001	2.96595E-007	0.00000E+000	2.00014E-001	-3.47922E-004	7	...........	1572.51
	1512	302.6	1.99411E-001	1.31520E-007	0.00000E+000	2.00014E-001	-3.42002E-004	7	...........	1572.60
	1596	319.4	1.99382E-001	5.34193E-008	0.00000E+000	2.00014E-001	-3.35916E-004	7	...........	1572.60
	1680	336.2	1.99405E-001	1.00331E-007	0.00000E+000	2.00014E-001	-3.40418E-004	7	...........	1572.51
	1764	353	1.99335E-001	4.11017E-008	0.00000E+000	2.00014E-001	-3.52258E-004	7	...........	1572.60
	1848	369.8	1.99382E-001	9.08794E-008	0.00000E+000	2.00014E-001	-3.52341E-004	7	...........	1572.51
	1932	386.6	1.99370E-001	3.89109E-008	0.00000E+000	2.00014E-001	-3.55426E-004	7	...........	1572.60
	2016	403.4	1.99380E-001	3.14256E-008	0.00000E+000	2.00014E-001	-3.50924E-004	7	...........	1572.60
	2100	420.2	1.99410E-001	8.14083E-008	0.00000E+000	2.00014E-001	-3.64264E-004	7	...........	1572.60
	2184	437	1.99390E-001	3.11044E-008	0.00000E+000	2.00014E-001	-3.47005E-004	7	...........	1572.60
	2268	453.8	1.99371E-001	7.83783E-008	0.00000E+000	2.00014E-001	-3.61429E-004	7	...........	1572.60
	2352	470.6	1.99357E-001	2.96339E-008	0.00000E+000	2.00014E-001	-3.78021E-004	7	...........	1572.60
	2436	487.4	1.99403E-001	7.57398E-008	0.00000E+000	2.00014E-001	-3.45087E-004	7	...........	1572.51
	2520	504.2	1.99361E-001	7.52753E-008	0.00000E+000	2.00014E-001	-3.66431E-004	7	...........	1572.60
	2604	521	1.99369E-001	2.58335E-008	0.00000E+000	2.00014E-001	-3.57260E-004	7	...........	1572.60
	2688	537.8	1.99340E-001	7.30734E-008	0.00000E+000	2.00014E-001	-3.58177E-004	7	...........	1572.60
	2772	554.6	1.99386E-001	2.59690E-008	0.00000E+000	2.00014E-001	-3.58594E-004	7	...........	1572.60
	2856	571.4	3.99274E-001	4.40923E-007	0.00000E+000	3.99977E-001	-3.36833E-004	7	...........	1572.60
	2940	588.2	3.99281E-001	2.17146E-007	0.00000E+000	3.99977E-001	-3.44920E-004	7	...........	1572.60
	3024	605	3.99291E-001	1.64003E-007	0.00000E+000	3.99977E-001	-3.48172E-004	7	...........	1572.60
	3108	621.8	3.99270E-001	2.35395E-007	0.00000E+000	3.99977E-001	-3.67766E-004	7	...........	1572.60
	3192	638.6	3.99282E-001	1.24207E-007	0.00000E+000	3.99977E-001	-3.57177E-004	7	...........	1572.60
	3276	655.4	3.99262E-001	2.01295E-007	0.00000E+000	3.99977E-001	-3.70350E-004	7	...........	1572.60
	3360	672.2	3.99250E-001	1.06081E-007	0.00000E+000	3.99977E-001	-3.80772E-004	7	...........	1572.60
	3444	689	3.99244E-001	1.84027E-007	0.00000E+000	3.99977E-001	-3.44920E-004	7	...........	1572.60
	3528	705.8	3.99284E-001	1.00238E-007	0.00000E+000	3.99977E-001	-3.53258E-004	7	...........	1572.60
	3612	722.6	3.99269E-001	8.68565E-008	0.00000E+000	3.99977E-001	-3.56176E-004	7	...........	1572.60
	3696	739.4	3.99289E-001	1.66546E-007	0.00000E+000	3.99977E-001	-3.55009E-004	7	...........	1572.60
	3780	756.2	3.99297E-001	8.11789E-008	0.00000E+000	3.99977E-001	-3.50673E-004	7	...........	1572.60
	3864	773	3.99296E-001	1.58212E-007	0.00000E+000	3.99977E-001	-3.60845E-004	7	...........	1572.60
[...]
	5460	1092.2	5.99205E-001	3.52096E-007	0.00000E+000	5.99991E-001	-3.62846E-004	7	...........	1572.60
	5544	1109	5.99216E-001	2.28311E-007	0.00000E+000	5.99991E-001	-3.57093E-004	7	...........	1572.60
	5628	1125.8	7.99158E-001	1.27904E-006	0.00000E+000	8.00004E-001	-3.45504E-004	7	...........	1572.60
	5712	1142.6	7.99186E-001	1.30388E-006	0.00000E+000	8.00004E-001	-3.80856E-004	7	...........	1572.60
	5796	1159.4	7.99142E-001	9.51889E-007	0.00000E+000	8.00004E-001	-3.54926E-004	7	...........	1572.60
	5880	1176.2	7.99182E-001	1.10918E-006	0.00000E+000	8.00004E-001	-3.52925E-004	7	...........	1572.60
	5964	1193	7.99184E-001	8.09839E-007	0.00000E+000	8.00004E-001	-3.57844E-004	7	...........	1572.60
	6048	1209.8	7.99134E-001	9.51842E-007	0.00000E+000	8.00004E-001	-3.58511E-004	7	...........	1572.60
	6132	1226.6	7.99153E-001	9.53248E-007	0.00000E+000	8.00004E-001	-3.57177E-004	7	...........	1572.60
	6216	1243.4	7.99145E-001	6.07351E-007	0.00000E+000	8.00004E-001	-3.59178E-004	7	...........	1572.60
	6300	1260.2	7.99138E-001	8.07603E-007	0.00000E+000	8.00004E-001	-3.70350E-004	7	...........	1572.60
	6384	1277	7.99156E-001	5.64996E-007	0.00000E+000	8.00004E-001	-3.54425E-004	7	...........	1572.60
	6468	1293.8	7.99168E-001	7.50026E-007	0.00000E+000	8.00004E-001	-3.61679E-004	7	...........	1572.60
	6552	1310.6	7.99190E-001	5.23615E-007	0.00000E+000	8.00004E-001	-3.49089E-004	7	...........	1572.60
	6636	1327.4	7.99188E-001	6.88412E-007	0.00000E+000	8.00004E-001	-3.61179E-004	7	...........	1572.60
	6720	1344.2	7.99168E-001	6.79850E-007	0.00000E+000	8.00004E-001	-3.56760E-004	7	...........	1572.60
	6804	1361	7.99172E-001	4.51450E-007	0.00000E+000	8.00004E-001	-3.50924E-004	7	...........	1572.60
	6888	1377.8	7.99114E-001	6.42579E-007	0.00000E+000	8.00004E-001	-3.62763E-004	7	...........	1572.60
	6972	1394.6	7.99195E-001	4.32159E-007	0.00000E+000	8.00004E-001	-3.61429E-004	7	...........	1572.60
	7056	1411.4	9.99147E-001	1.98126E-006	0.00000E+000	1.00002E+000	-3.54092E-004	7	...........	1572.60
	7140	1428.2	9.99121E-001	1.45736E-006	0.00000E+000	1.00002E+000	-3.72435E-004	7	...........	1572.60
	7224	1445	9.99149E-001	1.24700E-006	0.00000E+000	1.00002E+000	-3.60428E-004	7	...........	1572.60
	7308	1461.8	9.99149E-001	1.56663E-006	0.00000E+000	1.00002E+000	-3.55426E-004	7	...........	1572.60
	7392	1478.6	9.99157E-001	1.15923E-006	0.00000E+000	1.00002E+000	-3.44837E-004	7	...........	1572.60
	7476	1495.4	9.99123E-001	1.44715E-006	0.00000E+000	1.00002E+000	-3.67349E-004	7	...........	1572.60
	7560	1512.2	9.99145E-001	1.12546E-006	0.00000E+000	1.00002E+000	-3.50757E-004	7	...........	1572.60
	7644	1529	9.99158E-001	1.36546E-006	0.00000E+000	1.00002E+000	-3.54509E-004	7	...........	1572.60
	7728	1545.8	9.99123E-001	1.39040E-006	0.00000E+000	1.00002E+000	-3.79772E-004	7	...........	1572.60
	7812	1562.6	9.99115E-001	1.01289E-006	0.00000E+000	1.00002E+000	-3.67099E-004	7	...........	1572.60
	7896	1579.4	9.99150E-001	1.30020E-006	0.00000E+000	1.00002E+000	-3.86859E-004	7	...........	1572.60
	7980	1596.2	9.99145E-001	9.51632E-007	0.00000E+000	1.00002E+000	-3.52758E-004	7	...........	1572.60
	8064	1613	9.99135E-001	1.17452E-006	0.00000E+000	1.00002E+000	-3.67265E-004	7	...........	1572.60
	8148	1629.8	9.99111E-001	9.31289E-007	0.00000E+000	1.00002E+000	-3.48339E-004	7	...........	1572.60
	8232	1646.6	9.99118E-001	7.52477E-007	0.00000E+000	1.00002E+000	-3.54175E-004	7	...........	1572.60
	8316	1663.4	9.99084E-001	1.05744E-006	0.00000E+000	1.00002E+000	-3.54675E-004	7	...........	1572.60
	8399	1680	9.99139E-001	7.18244E-007	0.00000E+000	1.00002E+000	-3.53258E-004	7	...........	1572.60